#time,accel_x,accel_y,accel_z
86.540654,3849.070898,-2368.659014,78754.617194
86.543196,3552.988522,-2368.659014,79673.931792
86.545739,3997.112087,-888.247130,79673.931792
86.548282,3997.112087,-1332.370696,78601.398095
86.550824,3552.988522,-1924.535449,79520.712692
86.553367,4589.276840,-2072.576638,79827.150892
86.555909,3552.988522,-1480.411884,78448.178995
86.558452,3701.029710,-2072.576638,78141.740796
86.560994,3256.906145,-2516.700203,79673.931792
86.563537,4145.153275,-2812.782580,79673.931792
86.566079,3997.112087,-1184.329507,78448.178995
86.568622,3256.906145,-1924.535449,79520.712692
86.571165,4441.235652,-2220.617826,79980.369991
86.573707,3701.029710,-1776.494261,78907.836294
86.576250,3997.112087,-2072.576638,78141.740796
86.578792,3256.906145,-2072.576638,79980.369991
86.581335,5181.441594,-1628.453072,79673.931792
86.583877,3701.029710,-2072.576638,78601.398095
86.586420,2664.741391,-1776.494261,78141.740796
86.588962,3849.070898,-1776.494261,79827.150892
86.591505,5181.441594,-1628.453072,79520.712692
86.594048,4145.153275,-2072.576638,78141.740796
86.596590,3552.988522,-1924.535449,78754.617194
86.599133,4293.194464,-1628.453072,79673.931792
86.601675,5181.441594,-1184.329507,78754.617194
86.604218,4589.276840,-2960.823768,77528.864398
86.606760,1924.535449,10066.800811,79827.150892
86.609249,6513.812290,1184.329507,79980.369991
86.611786,13027.624579,-4737.318029,77222.426198
86.614324,-8882.471304,-7994.224174,79061.055394
86.616861,-444.123565,16580.613101,81665.780087
86.619398,6217.729913,2664.741391,79673.931792
86.621935,5329.482782,6661.853478,78294.959896
86.624472,4885.359217,3997.112087,77222.426198
86.627009,6957.935855,-10658.965565,79520.712692
86.629546,-6661.853478,-11991.336260,77835.302597
86.632083,10214.842000,8438.347739,81359.341888
86.634621,2220.617826,4293.194464,79673.931792
86.637158,8882.471304,-26943.496289,78294.959896
86.639695,-22946.384202,-4885.359217,77375.645298
86.642232,3552.988522,-15544.324782,81206.122788
86.644769,12879.583391,13027.624579,79827.150892
86.647306,8586.388927,-10807.006753,78294.959896
86.649843,296.082377,5033.400406,78294.959896
86.652381,4441.235652,-18801.230927,77528.864398
86.654918,6957.935855,-12731.542202,78754.617194
86.657455,7994.224174,6365.771101,78448.178995
86.659992,-3552.988522,-10658.965565,80593.246390
86.662529,5033.400406,9770.718434,80286.808190
86.665066,0.000000,-8734.430116,77988.521696
86.667603,-740.205942,-21169.889941,78907.836294
86.670140,13027.624579,-4145.153275,80899.684589
86.672678,2516.700203,9178.553681,79367.493593
86.675215,3701.029710,-2664.741391,77988.521696
86.677752,3552.988522,1776.494261,78907.836294
86.680289,4737.318029,-8290.306550,80746.465489
86.682826,4293.194464,-10955.047942,80746.465489
86.685363,5625.565159,-10066.800811,77375.645298
86.687900,3256.906145,1628.453072,78601.398095
86.690437,1776.494261,9622.677246,80593.246390
86.692975,-4885.359217,-18209.066173,79061.055394
86.695512,4589.276840,-30348.443622,79980.369991
86.698049,9030.512492,888.247130,79520.712692
86.700586,-5625.565159,-3552.988522,79520.712692
86.703123,19689.478057,13175.665768,77222.426198
86.705660,-2960.823768,4885.359217,78294.959896
86.708197,-6069.688724,-39971.120868,83197.971083
86.710729,14211.954086,444.123565,79214.274493
86.713261,-25315.043216,-33309.267390,78448.178995
86.715793,21317.931130,-8142.265362,77682.083497
86.718324,1184.329507,51814.415940,81512.560987
86.720856,-25759.166782,8290.306550,87794.544071
86.723388,24870.919651,-36566.173535,74311.263306
86.725919,19097.313304,-3256.906145,77528.864398
86.728451,-13619.789333,11547.212695,80133.589091
86.730983,5033.400406,-20429.683999,80593.246390
86.733515,30496.484810,42339.779882,80286.808190
86.736046,-14359.995275,12435.459826,78754.617194
86.738578,-3404.947333,-66470.493592,78141.740796
86.741110,5477.523971,-5033.400406,73698.386908
86.743641,-4293.194464,46929.056723,79827.150892
86.746173,3997.112087,-39526.997303,80593.246390
86.748705,24722.878463,-1480.411884,77069.207099
86.751237,7105.977043,35677.926404,76149.892501
86.753768,5625.565159,-13323.706956,79980.369991
86.756300,2072.576638,-6957.935855,76609.549800
86.758832,7402.059420,16876.695478,78448.178995
86.761363,-3404.947333,-4441.235652,81359.341888
86.763895,8290.306550,11991.336260,79061.055394
86.766427,2960.823768,2516.700203,76915.987999
86.768959,-2368.659014,-8586.388927,81052.903688
86.771490,2516.700203,0.000000,80899.684589
86.774022,5181.441594,3552.988522,78141.740796
86.776554,9178.553681,-5329.482782,76149.892501
86.779085,-2072.576638,7698.141797,80593.246390
86.781617,2516.700203,13471.748144,82125.437386
86.784149,-2960.823768,2516.700203,80593.246390
86.786681,5477.523971,2220.617826,79367.493593
86.789212,1036.288319,11843.295072,78754.617194
86.791744,4737.318029,-2220.617826,78907.836294
86.794276,10066.800811,-1776.494261,78448.178995
86.796807,-5181.441594,-10955.047942,78601.398095
86.799339,9918.759623,14211.954086,81665.780087
86.801871,6513.812290,592.164754,77528.864398
86.804402,1184.329507,-47521.221476,76762.768900
86.806934,-18653.189738,34049.473332,80133.589091
86.809466,-148.041188,-10658.965565,83657.628382
86.811993,13619.789333,-9770.718434,77375.645298
86.814519,-13767.830521,13027.624579,76915.987999
86.817046,2072.576638,-24870.919651,77988.521696
86.819573,23686.590144,-41303.491564,74770.920605
86.822100,-16136.489536,34197.514520,77835.302597
86.824627,-3997.112087,-48113.386230,82738.313784
86.827153,29904.320057,-16284.530724,79827.150892
86.829680,-1184.329507,58772.351795,75230.577904
86.832207,13767.830521,-44560.397708,79827.150892
86.834734,18061.024985,-36418.132346,78141.740796
86.837261,-22354.219448,8882.471304,76609.549800
86.839787,14656.077652,-22354.219448,81665.780087
86.842314,26351.331535,16728.654289,80440.027290
86.844841,-5033.400406,3256.906145,77069.207099
86.847368,5033.400406,-25907.207970,74158.044206
86.849894,17616.901420,-12435.459826,79214.274493
86.852421,-6513.812290,24870.919651,82891.532884
86.854948,10510.924376,-45300.603650,80133.589091
86.857475,17024.736666,19985.560434,76303.111601
86.860002,-4145.153275,13767.830521,77682.083497
86.862528,3256.906145,-24278.754898,78754.617194
86.865055,7846.182985,-5477.523971,79673.931792
86.867582,4885.359217,-11843.295072,80746.465489
86.870109,888.247130,-12435.459826,79367.493593
86.872636,4145.153275,2220.617826,77835.302597
86.875162,9918.759623,4441.235652,78601.398095
86.877689,-1036.288319,-17468.860231,80593.246390
86.880216,10510.924376,-13175.665768,79827.150892
86.882743,7105.977043,148.041188,77528.864398
86.885269,-7846.182985,-18653.189738,76149.892501
86.887796,10362.883188,-6661.853478,79367.493593
86.890323,2960.823768,6513.812290,80899.684589
86.892850,4145.153275,-16728.654289,79367.493593
86.895377,11547.212695,2220.617826,77375.645298
86.897903,-9918.759623,10066.800811,80746.465489
86.900430,9178.553681,-37158.338288,80133.589091
86.902957,9474.636058,-9770.718434,76609.549800
86.905484,4589.276840,-11103.089130,79980.369991
86.908011,18357.107362,-24574.837274,75690.235202
86.910537,-6957.935855,11547.212695,78141.740796
86.913063,18505.148550,42191.738694,82738.313784
86.915588,21614.013506,-51222.251186,76915.987999
86.918114,-11103.089130,-6957.935855,77528.864398
86.920639,5329.482782,15396.283594,77682.083497
86.923165,2812.782580,-12287.418637,79367.493593
86.925690,11251.130318,26499.372724,80286.808190
86.928215,3404.947333,54775.239708,81206.122788
86.930741,28868.031738,-53886.992578,78907.836294
86.933266,-4145.153275,-35233.802839,71093.662214
86.935792,25167.002028,45892.768404,78294.959896
86.938317,16136.489536,-4885.359217,82431.875585
86.940843,15248.242405,10955.047942,79214.274493
86.943368,-5329.482782,32272.979071,78601.398095
86.945894,4145.153275,3701.029710,82431.875585
86.948419,-5181.441594,-11399.171507,78601.398095
86.950944,2516.700203,15396.283594,78294.959896
86.953470,11695.253884,-1036.288319,80746.465489
86.955995,5477.523971,8586.388927,80440.027290
86.958521,1332.370696,18949.272115,77069.207099
86.961046,2220.617826,-3849.070898,78907.836294
86.963572,8586.388927,11695.253884,83351.190182
86.966097,1036.288319,-1776.494261,79673.931792
86.968623,10362.883188,7105.977043,78601.398095
86.971148,3849.070898,11103.089130,78141.740796
86.973674,5033.400406,296.082377,78907.836294
86.976199,1480.411884,1776.494261,78754.617194
86.978724,5921.647536,4737.318029,80286.808190
86.981250,5921.647536,-7105.977043,79520.712692
86.983775,4441.235652,2516.700203,77375.645298
86.986301,-296.082377,-11695.253884,78448.178995
86.988826,7846.182985,12583.501014,81665.780087
86.991352,8438.347739,592.164754,76915.987999
86.993877,5033.400406,-54035.033766,77835.302597
86.996403,-29608.237680,37898.544230,79367.493593
86.998928,-1184.329507,-15692.365970,83351.190182
87.001453,18949.272115,-1480.411884,79061.055394
87.003979,-14804.118840,17616.901420,76915.987999
87.006504,21614.013506,-22946.384202,75843.454302
87.009030,1036.288319,-58032.145853,71400.100414
87.011555,444.123565,45744.727216,79061.055394
87.014078,22798.343014,-11695.253884,85802.695776
87.016601,33753.390955,-23094.425390,79520.712692
87.019124,3701.029710,59364.516548,72625.853210
87.021648,11991.336260,-41451.532752,77682.083497
87.024171,16432.571912,-33457.308578,79673.931792
87.026694,-27535.661042,11251.130318,80440.027290
87.029217,14656.077652,-18357.107362,83351.190182
87.031740,8142.265362,34937.720462,80133.589091
87.034263,-4441.235652,13175.665768,79980.369991
87.036786,10955.047942,-36714.214723,73238.729609
87.039309,-7550.100608,3701.029710,80899.684589
87.041832,-10214.842000,-27387.619854,81359.341888
87.044355,16432.571912,-33161.226202,80746.465489
87.046879,9326.594869,29164.114115,77682.083497
87.049402,-14211.954086,12435.459826,78601.398095
87.051925,7105.977043,-24870.919651,78294.959896
87.054448,3997.112087,-4885.359217,79520.712692
87.056971,3701.029710,-29904.320057,79980.369991
87.059494,5329.482782,-9474.636058,78294.959896
87.062017,2960.823768,1480.411884,78141.740796
87.064540,6365.771101,4293.194464,78601.398095
87.067063,8290.306550,2516.700203,80286.808190
87.069586,1776.494261,-21169.889941,81206.122788
87.072109,3701.029710,-444.123565,79061.055394
87.074633,2664.741391,-3404.947333,76762.768900
87.077156,3997.112087,-10066.800811,78448.178995
87.079679,8142.265362,23242.466579,80899.684589
87.082202,2516.700203,11843.295072,80440.027290
87.084725,-13471.748144,-7105.977043,79061.055394
87.087248,4441.235652,-29756.278868,81359.341888
87.089771,7402.059420,-17320.819043,78141.740796
87.092294,7846.182985,-888.247130,78754.617194
87.094817,22058.137072,-14211.954086,75843.454302
87.097340,-5773.606348,33753.390955,80286.808190
87.099863,-740.205942,37010.297100,86262.353075
87.102387,30200.402434,-74168.635388,72932.291410
87.104910,27091.537477,9178.553681,77222.426198
87.107433,-30792.567187,20873.807564,83044.751983
87.109956,4293.194464,-22946.384202,80593.246390
87.112479,12879.583391,74464.717765,80593.246390
87.114909,-27535.661042,20281.642811,83351.190182
87.117338,16284.530724,-69727.399736,77835.302597
87.119768,5625.565159,-13323.706956,71400.100414
87.122197,3552.988522,33901.432144,76456.330700
87.124627,15692.365970,-45152.562462,81206.122788
87.127057,19689.478057,11103.089130,78294.959896
87.129486,-12139.377449,27239.578666,75690.235202
87.131916,10510.924376,-25018.960840,80133.589091
87.134345,-6513.812290,-4293.194464,77682.083497
87.136775,148.041188,17172.777854,79061.055394
87.139205,11251.130318,4589.276840,81052.903688
87.141634,13619.789333,14952.160028,80899.684589
87.144064,-8438.347739,11399.171507,77222.426198
87.146493,1628.453072,-19541.436869,77988.521696
87.148923,8734.430116,8882.471304,81512.560987
87.151353,-444.123565,2220.617826,80440.027290
87.153782,13767.830521,8142.265362,78294.959896
87.156212,1036.288319,16284.530724,77682.083497
87.158641,2664.741391,-4885.359217,79980.369991
87.161071,8734.430116,6809.894666,79673.931792
87.163500,9918.759623,-5033.400406,77988.521696
87.165930,-3552.988522,-16284.530724,77375.645298
87.168360,13027.624579,29904.320057,81052.903688
87.170789,444.123565,-3256.906145,79367.493593
87.173219,5181.441594,-11695.253884,77682.083497
87.175648,16432.571912,20281.642811,78907.836294
87.178078,5329.482782,15840.407159,81206.122788
87.180508,3849.070898,28127.825796,84423.723880
87.182937,12139.377449,1332.370696,76303.111601
87.185367,5033.400406,18653.189738,79061.055394
87.187796,-15544.324782,-33457.308578,75077.358804
87.190226,8438.347739,3108.864956,81052.903688
87.192656,888.247130,27979.784608,80440.027290
87.195085,7994.224174,-25907.207970,84883.381178
87.197515,-148.041188,10066.800811,78907.836294
87.199944,-296.082377,-5329.482782,74617.701505
87.202374,-592.164754,-31976.896694,77222.426198
87.204804,14211.954086,-21614.013506,77682.083497
87.207233,2664.741391,7254.018232,78907.836294
87.209663,-296.082377,-9178.553681,82738.313784
87.212121,16284.530724,6809.894666,79520.712692
87.214579,-296.082377,-2368.659014,75077.358804
87.217037,-9178.553681,-25611.125593,74464.482406
87.219495,15840.407159,-3997.112087,77835.302597
87.221953,-8586.388927,-30792.567187,81972.218286
87.224411,14211.954086,-12879.583391,80133.589091
87.226869,5773.606348,29608.237680,77528.864398
87.229328,-4441.235652,-5477.523971,78294.959896
87.231786,9918.759623,-26351.331535,77988.521696
87.234244,5921.647536,-4293.194464,79061.055394
87.236702,-2960.823768,-21762.054695,80440.027290
87.239160,9030.512492,-5329.482782,79214.274493
87.241618,5625.565159,17912.983796,77988.521696
87.244076,-888.247130,-12879.583391,79214.274493
87.246534,1332.370696,-7402.059420,81052.903688
87.248992,9770.718434,-15248.242405,80746.465489
87.251450,3997.112087,-26795.455100,76609.549800
87.253908,7105.977043,13767.830521,76456.330700
87.256366,1924.535449,25759.166782,80286.808190
87.258825,-13175.665768,4145.153275,82278.656485
87.261283,12287.418637,-51962.457128,78907.836294
87.263741,4441.235652,-13619.789333,77222.426198
87.266199,11399.171507,-5773.606348,79061.055394
87.268657,4589.276840,-38046.585419,74464.482406
87.271115,-1628.453072,28868.031738,78448.178995
87.273573,8142.265362,37306.379477,88100.982270
87.276031,27979.784608,-64545.958142,74004.825107
87.278489,-4145.153275,-12583.501014,72625.853210
87.280947,-5477.523971,16876.695478,77375.645298
87.283405,6365.771101,-24870.919651,81052.903688
87.285864,18209.066173,29904.320057,79061.055394
87.288322,4589.276840,56847.816346,78754.617194
87.290780,17024.736666,-60548.846056,78141.740796
87.293238,-15692.365970,-38194.626607,74464.482406
87.295696,26351.331535,38638.750172,79061.055394
87.298154,2368.659014,31976.896694,86415.572174
87.300612,3997.112087,17764.942608,79827.150892
87.303070,-4293.194464,34493.596897,76762.768900
87.305528,6513.812290,-11695.253884,81512.560987
87.307986,-8734.430116,-13027.624579,80899.684589
87.310465,7254.018232,4885.359217,78754.617194
87.312944,1480.411884,10066.800811,80286.808190
87.315422,296.082377,-5625.565159,79214.274493
87.317901,6365.771101,9918.759623,77375.645298
87.320379,-3108.864956,-4885.359217,79367.493593
87.322858,8142.265362,9770.718434,81972.218286
87.325337,9326.594869,-3256.906145,79214.274493
87.327815,8882.471304,8586.388927,79367.493593
87.330294,3997.112087,18061.024985,77682.083497
87.332772,1628.453072,-6365.771101,77835.302597
87.335251,6513.812290,5773.606348,79980.369991
87.337730,-2664.741391,-12879.583391,79673.931792
87.340208,14063.912898,26795.455100,80899.684589
87.342687,-3552.988522,148.041188,77835.302597
87.345166,5033.400406,-14952.160028,78141.740796
87.347644,23538.548956,19541.436869,79520.712692
87.350123,-1628.453072,17024.736666,80593.246390
87.352601,1628.453072,21317.931130,84730.162079
87.355080,13471.748144,-740.205942,77375.645298
87.357559,-4737.318029,16284.530724,74770.920605
87.360037,-21910.095883,-15988.448347,77375.645298
87.362516,18209.066173,-23982.672521,83964.066581
87.364994,-2368.659014,40711.326810,80286.808190
87.367473,-2812.782580,-24574.837274,84270.504780
87.369952,5033.400406,-4145.153275,78448.178995
87.372430,4737.318029,16580.613101,74004.825107
87.374909,2368.659014,-32421.020260,77835.302597
87.377387,20133.601622,-34049.473332,77222.426198
87.379866,-11103.089130,4441.235652,77988.521696
87.382345,9474.636058,-9030.512492,83504.409282
87.384823,22058.137072,13619.789333,79980.369991
87.387302,-2664.741391,-2664.741391,74004.825107
87.389781,-7402.059420,-42931.944636,73085.510509
87.392259,20133.601622,14063.912898,79673.931792
87.394738,2960.823768,-12583.501014,81052.903688
87.397216,14656.077652,-26055.249158,79827.150892
87.399695,8882.471304,38934.832549,79367.493593
87.402174,-1184.329507,-4145.153275,77835.302597
87.404652,3404.947333,1332.370696,77528.864398
87.407131,3701.029710,-6069.688724,79367.493593
87.409626,8734.430116,-20133.601622,80286.808190
87.412122,592.164754,-11399.171507,79367.493593
87.414617,5181.441594,1184.329507,78294.959896
87.417113,5625.565159,-21021.848753,78907.836294
87.419608,6365.771101,-148.041188,79827.150892
87.422104,2664.741391,-17024.736666,77528.864398
87.424599,5329.482782,-14359.995275,77682.083497
87.427095,11103.089130,21762.054695,79367.493593
87.429590,-9918.759623,7846.182985,80133.589091
87.432086,8142.265362,-38342.667796,78754.617194
87.434581,9918.759623,-5625.565159,78907.836294
87.437077,10214.842000,-15100.201217,79367.493593
87.439572,4145.153275,-29016.072926,74770.920605
87.442068,-148.041188,14804.118840,78448.178995
87.444563,7105.977043,31680.814318,85496.257577
87.447059,22058.137072,-42635.862259,75537.016103
87.449554,-2220.617826,-14211.954086,75996.673402
87.452050,-4441.235652,15544.324782,77835.302597
87.454545,2072.576638,-10066.800811,79520.712692
87.457041,12731.542202,18209.066173,79367.493593
87.459536,6069.688724,51814.415940,80133.589091
87.462032,19837.519246,-36862.255912,79367.493593
87.464527,-10510.924376,-43968.232955,74770.920605
87.467023,22650.301825,30792.567187,79214.274493
87.469518,-16284.530724,37898.544230,86415.572174
87.472014,-17172.777854,-11991.336260,84117.285680
87.474509,1036.288319,27979.784608,76149.892501
87.477005,1924.535449,2664.741391,81818.999186
87.479500,-10658.965565,-27091.537477,81359.341888
87.481996,17172.777854,24870.919651,77682.083497
87.484491,-1628.453072,2812.782580,80133.589091
87.486987,5921.647536,-6365.771101,79367.493593
87.489482,7105.977043,13027.624579,77375.645298
87.491978,-6365.771101,-4589.276840,77988.521696
87.494473,1776.494261,-7402.059420,81818.999186
87.496969,4885.359217,13323.706956,80899.684589
87.499464,5181.441594,1924.535449,78448.178995
87.501960,7402.059420,6809.894666,77222.426198
87.504455,5329.482782,14359.995275,80133.589091
87.506951,-4737.318029,-13471.748144,79827.150892
87.509459,19097.313304,20281.642811,80286.808190
87.511966,5329.482782,3552.988522,79214.274493
87.514474,-5477.523971,-23686.590144,77222.426198
87.516982,8734.430116,21169.889941,79367.493593
87.519490,4145.153275,19097.313304,80746.465489
87.521998,4589.276840,22058.137072,84883.381178
87.524505,14804.118840,-3256.906145,78294.959896
87.527013,888.247130,5329.482782,75230.577904
87.529521,-18357.107362,-1628.453072,77069.207099
87.532029,14656.077652,-19097.313304,83657.628382
87.534537,9918.759623,42635.862259,82278.656485
87.537044,-2812.782580,-23686.590144,83964.066581
87.539552,-4293.194464,-5181.441594,77528.864398
87.542060,6365.771101,13915.871710,74617.701505
87.544568,1480.411884,-34493.596897,79367.493593
87.547076,24278.754898,-35974.008781,78754.617194
87.549583,-3997.112087,7254.018232,76915.987999
87.552091,8586.388927,-8734.430116,82431.875585
87.554599,18357.107362,11251.130318,79980.369991
87.557107,-3552.988522,12583.501014,77375.645298
87.559615,-7402.059420,-32421.020260,74158.044206
87.562122,24722.878463,-4737.318029,79520.712692
87.564630,-11251.130318,7254.018232,81052.903688
87.567138,9178.553681,-38342.667796,80286.808190
87.569646,21910.095883,12731.542202,77069.207099
87.572154,7105.977043,7254.018232,77988.521696
87.574661,-3552.988522,-17912.983796,78141.740796
87.577169,296.082377,-12139.377449,78907.836294
87.579677,148.041188,-31828.855506,79980.369991
87.582185,3256.906145,6513.812290,80286.808190
87.584693,10807.006753,-1332.370696,78601.398095
87.587200,148.041188,-7105.977043,78448.178995
87.589708,1184.329507,-1776.494261,79980.369991
87.592216,7254.018232,-14804.118840,78294.959896
87.594724,8142.265362,10510.924376,79827.150892
87.597232,-9178.553681,8586.388927,80286.808190
87.599739,11103.089130,-35677.926404,79980.369991
87.602247,5329.482782,-2072.576638,78141.740796
87.604755,8290.306550,-14211.954086,78907.836294
87.607263,3997.112087,-32569.061448,75230.577904
87.609772,-2220.617826,13471.748144,79520.712692
87.612288,23982.672521,30644.525999,82585.094684
87.614805,7994.224174,-45004.521274,75843.454302
87.617321,5921.647536,7254.018232,80286.808190
87.619837,-21169.889941,6957.935855,81206.122788
87.622354,-148.041188,-24722.878463,79367.493593
87.624870,3256.906145,41895.656317,79520.712692
87.627387,5329.482782,31828.855506,81206.122788
87.629903,27239.578666,-39082.873738,78294.959896
87.632420,-13915.871710,-34493.596897,73698.386908
87.634936,25759.166782,26647.413912,79367.493593
87.637453,-11547.212695,38638.750172,86262.353075
87.639969,-13471.748144,-12879.583391,83044.751983
87.642486,14063.912898,43968.232955,76762.768900
87.645002,-12731.542202,0.000000,81359.341888
87.647519,-4885.359217,-21169.889941,79980.369991
87.650035,16728.654289,20873.807564,78141.740796
87.652551,-592.164754,-2664.741391,80593.246390
87.655068,7402.059420,9030.512492,80133.589091
87.657584,4293.194464,27239.578666,78907.836294
87.660101,-4737.318029,-19541.436869,77528.864398
87.662617,7994.224174,6069.688724,81206.122788
87.665134,148.041188,4737.318029,80440.027290
87.667650,7994.224174,-8142.265362,78754.617194
87.670167,5033.400406,26351.331535,78754.617194
87.672683,-5921.647536,-21021.848753,78141.740796
87.675200,7105.977043,2812.782580,81052.903688
87.677716,8882.471304,17468.860231,77988.521696
87.680232,2812.782580,-33013.185013,78448.178995
87.682749,5033.400406,9326.594869,79214.274493
87.685265,7254.018232,28571.949361,81359.341888
87.687782,740.205942,19837.519246,84270.504780
87.690298,15840.407159,1036.288319,77069.207099
87.692815,592.164754,11251.130318,75996.673402
87.695331,-23390.507767,-13619.789333,78141.740796
87.697848,29164.114115,-43820.191766,82278.656485
87.700364,-5921.647536,54627.198520,81052.903688
87.702881,-8586.388927,-37602.461854,83657.628382
87.705397,1924.535449,-1924.535449,76609.549800
87.707913,5625.565159,5033.400406,73238.729609
87.710436,-2960.823768,-32569.061448,79673.931792
87.712958,16876.695478,-27387.619854,80133.589091
87.715481,-1480.411884,296.082377,79673.931792
87.718003,8586.388927,1332.370696,80593.246390
87.720525,13915.871710,9474.636058,78907.836294
87.723048,-148.041188,7254.018232,78601.398095
87.725570,3701.029710,-31384.731941,75843.454302
87.728092,15692.365970,-2072.576638,79367.493593
87.730615,-6661.853478,-7550.100608,81206.122788
87.733137,8882.471304,-20873.807564,79827.150892
87.735659,10510.924376,12879.583391,78294.959896
87.738182,6809.894666,19393.395680,79673.931792
87.740704,-740.205942,-20577.725188,79367.493593
87.743226,2516.700203,-21169.889941,77835.302597
87.745749,7105.977043,-23982.672521,76915.987999
87.748271,-740.205942,-12879.583391,79673.931792
87.750794,4441.235652,3256.906145,79980.369991
87.753316,2072.576638,-2072.576638,79214.274493
87.755838,3404.947333,-3552.988522,78448.178995
87.758361,8142.265362,7846.182985,80593.246390
87.760883,-9770.718434,0.000000,78601.398095
87.763405,5921.647536,-40415.244433,79827.150892
87.765928,9622.677246,-2812.782580,78448.178995
87.768450,3701.029710,1924.535449,80133.589091
87.770972,3552.988522,-25759.166782,74464.482406
87.773495,1332.370696,13027.624579,79980.369991
87.776017,17764.942608,21169.889941,83351.190182
87.778540,7254.018232,-46929.056723,74770.920605
87.781062,-8142.265362,6957.935855,79367.493593
87.783584,10807.006753,18949.272115,80440.027290
87.786107,1776.494261,-20133.601622,80593.246390
87.788629,4737.318029,37306.379477,78907.836294
87.791151,10510.924376,15988.448347,81512.560987
87.793674,15840.407159,-27239.578666,79520.712692
87.796196,-13175.665768,-32569.061448,75383.797003
87.798718,31384.731941,22206.178260,77528.864398
87.801241,-1628.453072,19097.313304,82125.437386
87.803763,-296.082377,-8290.306550,81206.122788
87.806285,12583.501014,65730.287650,76456.330700
87.808808,-8290.306550,-14211.954086,83504.409282
87.811336,11843.295072,-14508.036463,80440.027290
87.813864,-5329.482782,15692.365970,78294.959896
87.816392,-2960.823768,5477.523971,80286.808190
87.818920,7846.182985,-8142.265362,80440.027290
87.821449,5773.606348,27831.743419,78294.959896
87.823977,-7402.059420,-8734.430116,78601.398095
87.826505,10510.924376,-8142.265362,79520.712692
87.829033,3404.947333,8586.388927,79827.150892
87.831561,1332.370696,4737.318029,80133.589091
87.834089,7846.182985,-10066.800811,76915.987999
87.836617,16432.571912,29016.072926,78294.959896
87.839146,-1332.370696,-296.082377,78448.178995
87.841674,1924.535449,-21021.848753,78448.178995
87.844202,22946.384202,7550.100608,78448.178995
87.846730,-17172.777854,26943.496289,81206.122788
87.849258,-6217.729913,15840.407159,83657.628382
87.851786,18505.148550,3108.864956,76762.768900
87.854314,-9474.636058,10955.047942,75996.673402
87.856842,-12731.542202,-24574.837274,78448.178995
87.859371,29904.320057,-51370.292375,77222.426198
87.861899,-22798.343014,41007.409187,79520.712692
87.864427,-13323.706956,-44264.315332,86109.133975
87.866955,25167.002028,-9326.594869,78907.836294
87.869483,-8882.471304,45892.768404,72932.291410
87.872011,7698.141797,-47965.345042,76456.330700
87.874539,20429.683999,-12287.418637,80286.808190
87.877068,-16728.654289,15396.283594,81052.903688
87.879596,12731.542202,-12287.418637,81206.122788
87.882124,12879.583391,8734.430116,77835.302597
87.884652,-3404.947333,18801.230927,78601.398095
87.887180,296.082377,-37306.379477,76609.549800
87.889708,10807.006753,-4145.153275,80133.589091
87.892236,-2072.576638,-13915.871710,80286.808190
87.894765,7402.059420,-45300.603650,79214.274493
87.897293,7254.018232,23242.466579,78294.959896
87.899821,-4441.235652,14359.995275,79367.493593
87.902349,3849.070898,-5921.647536,81206.122788
87.904877,7105.977043,592.164754,80133.589091
87.907405,1036.288319,-34197.514520,78601.398095
87.909933,2220.617826,-15544.324782,77988.521696
87.912465,-888.247130,7254.018232,79827.150892
87.914996,4589.276840,2812.782580,79061.055394
87.917527,4293.194464,5773.606348,78601.398095
87.920058,-5625.565159,-10955.047942,79520.712692
87.922590,15396.283594,-35233.802839,77528.864398
87.925121,1184.329507,-30644.525999,77835.302597
87.927652,10362.883188,-6217.729913,77528.864398
87.930183,-5181.441594,-888.247130,78141.740796
87.932714,6957.935855,8586.388927,79980.369991
87.935246,11547.212695,29016.072926,81972.218286
87.937777,-22946.384202,-26795.455100,81818.999186
87.940308,-1184.329507,-30200.402434,80899.684589
87.942839,14952.160028,23094.425390,76456.330700
87.945371,-7994.224174,-14656.077652,78907.836294
87.947902,9770.718434,4441.235652,78907.836294
87.950433,7550.100608,61141.010809,80286.808190
87.952964,-28719.990550,-444.123565,85036.600278
87.955495,13619.789333,-47373.180288,75996.673402
87.958027,7105.977043,-12583.501014,76456.330700
87.960558,-13915.871710,31088.649564,80286.808190
87.963089,14063.912898,-9918.759623,80133.589091
87.965620,3701.029710,17320.819043,75690.235202
87.968152,-10955.047942,7698.141797,80286.808190
87.970683,15248.242405,-19245.354492,81052.903688
87.973214,-8142.265362,-7254.018232,76456.330700
87.975745,19245.354492,18801.230927,78141.740796
87.978277,11843.295072,-8142.265362,79827.150892
87.980808,7846.182985,18505.148550,79520.712692
87.983339,-148.041188,15100.201217,76762.768900
87.985870,1924.535449,-18949.272115,80133.589091
87.988401,-1480.411884,6957.935855,82431.875585
87.990933,2368.659014,-5773.606348,78448.178995
87.993464,13471.748144,30644.525999,80286.808190
87.995995,-13767.830521,1480.411884,79673.931792
87.998526,9918.759623,4293.194464,76149.892501
88.001058,3256.906145,-19689.478057,77682.083497
88.003589,-13767.830521,888.247130,82431.875585
88.006120,28127.825796,22058.137072,83351.190182
88.008651,296.082377,29312.155303,80899.684589
88.011182,7402.059420,-14359.995275,76762.768900
88.013717,20429.683999,29164.114115,74617.701505
88.016252,-26351.331535,-26055.249158,77222.426198
88.018787,5477.523971,10955.047942,83810.847481
88.021321,25611.125593,28868.031738,82431.875585
88.023856,5773.606348,-37010.297100,83044.751983
88.026391,-2812.782580,13619.789333,74464.482406
88.028925,8142.265362,-4885.359217,73851.606007
88.031460,-6957.935855,-31680.814318,79827.150892
88.033995,12879.583391,-37306.379477,79061.055394
88.036529,3849.070898,-148.041188,77835.302597
88.039064,6217.729913,4589.276840,81512.560987
88.041599,9326.594869,2664.741391,80593.246390
88.044133,3701.029710,9770.718434,77069.207099
88.046668,-740.205942,-30792.567187,74464.482406
88.049203,18653.189738,-13027.624579,78754.617194
88.051738,-1184.329507,-13323.706956,80593.246390
88.054272,2812.782580,-6069.688724,80593.246390
88.056807,8142.265362,8438.347739,78448.178995
88.059342,11991.336260,13323.706956,80746.465489
88.061876,2368.659014,-11251.130318,78141.740796
88.064411,5625.565159,-29016.072926,76456.330700
88.066946,8142.265362,-19689.478057,79214.274493
88.069480,1332.370696,-9474.636058,79980.369991
88.072015,3997.112087,5625.565159,78754.617194
88.074550,5181.441594,23242.466579,79827.150892
88.077085,-16284.530724,1924.535449,80133.589091
88.079619,7994.224174,-45004.521274,80899.684589
88.082154,8290.306550,-13323.706956,77069.207099
88.084689,11991.336260,-5477.523971,78754.617194
88.087223,-6069.688724,-12879.583391,77069.207099
88.089758,5477.523971,18061.024985,79980.369991
88.092293,13471.748144,31088.649564,82278.656485
88.094827,-21762.054695,-27239.578666,81206.122788
88.097362,-5921.647536,-33901.432144,80899.684589
88.099897,20873.807564,24722.878463,76149.892501
88.102431,-7105.977043,-19985.560434,77528.864398
88.104966,9622.677246,38046.585419,80899.684589
88.107501,21910.095883,40563.285622,79520.712692
88.110036,-14063.912898,-10955.047942,82431.875585
88.112570,-11547.212695,-49889.880491,75383.797003
88.115107,21465.972318,8142.265362,79367.493593
88.117644,-30052.361245,40119.162056,83044.751983
88.120180,9770.718434,-16284.530724,81665.780087
88.122717,9178.553681,14656.077652,75843.454302
88.125254,-3701.029710,23242.466579,79673.931792
88.127790,12731.542202,-32272.979071,79673.931792
88.130327,-1924.535449,-14508.036463,75383.797003
88.132864,14804.118840,18801.230927,78448.178995
88.135400,7550.100608,-15396.283594,78294.959896
88.137937,14063.912898,13915.871710,78448.178995
88.140474,-3108.864956,8882.471304,76609.549800
88.143010,4145.153275,-11991.336260,81206.122788
88.145547,1184.329507,-4441.235652,80593.246390
88.148084,14952.160028,34493.596897,81206.122788
88.150620,0.000000,-2516.700203,79520.712692
88.153157,8438.347739,10214.842000,76149.892501
88.155694,3849.070898,-8142.265362,75077.358804
88.158231,-9770.718434,-6513.812290,81972.218286
88.160767,17912.983796,26943.496289,84423.723880
88.163304,9918.759623,31680.814318,81206.122788
88.165841,-3552.988522,-17024.736666,75843.454302
88.168377,23982.672521,28571.949361,73851.606007
88.170914,-16580.613101,-32717.102636,74464.482406
88.173451,20577.725188,-5329.482782,85343.038477
88.175987,23538.548956,56995.857534,80746.465489
88.178524,740.205942,-32421.020260,82738.313784
88.181061,7105.977043,6069.688724,75690.235202
88.183597,10807.006753,14804.118840,74158.044206
88.186134,-7698.141797,-28571.949361,80746.465489
88.188671,11843.295072,-27239.578666,79214.274493
88.191207,7698.141797,-10807.006753,76609.549800
88.193744,4885.359217,9622.677246,81972.218286
88.196281,9326.594869,5181.441594,82431.875585
88.198817,7105.977043,3701.029710,77069.207099
88.201354,444.123565,-20725.766376,74924.139704
88.203891,14211.954086,-9474.636058,79367.493593
88.206427,-5033.400406,-8142.265362,80440.027290
88.208964,3256.906145,-28571.949361,78448.178995
88.211501,7994.224174,20873.807564,79214.274493
88.214038,3849.070898,11843.295072,81972.218286
88.216575,2220.617826,-19689.478057,78907.836294
88.219112,3849.070898,-12435.459826,76915.987999
88.221650,5773.606348,-22946.384202,78448.178995
88.224187,1924.535449,-6661.853478,80440.027290
88.226725,8734.430116,25759.166782,79827.150892
88.229262,-7254.018232,740.205942,79214.274493
88.231800,10362.883188,-40859.367998,76762.768900
88.234337,9326.594869,-11399.171507,80133.589091
88.236875,7105.977043,-5773.606348,77069.207099
88.239412,1036.288319,-17616.901420,78754.617194
88.241949,18209.066173,3701.029710,77835.302597
88.244487,-3701.029710,29016.072926,80746.465489
88.247024,-9326.594869,24722.878463,86875.229473
88.249562,-1924.535449,-49149.674549,75230.577904
88.252099,40267.203245,25463.084405,77682.083497
88.254637,-12731.542202,15544.324782,79673.931792
88.257174,8290.306550,-8586.388927,79061.055394
88.259712,6661.853478,74020.594200,81359.341888
88.262249,-22502.260637,13767.830521,86262.353075
88.264786,23538.548956,-51370.292375,76915.987999
88.267324,888.247130,-23834.631332,69867.909418
88.269861,16580.613101,37010.297100,77222.426198
88.272399,21614.013506,-7698.141797,82278.656485
88.274936,25315.043216,34789.679274,81052.903688
88.277474,-4441.235652,18949.272115,75230.577904
88.280011,5773.606348,-27239.578666,81665.780087
88.282549,-7402.059420,-9622.677246,79214.274493
88.285086,1480.411884,20429.683999,79367.493593
88.287623,7698.141797,7550.100608,82278.656485
88.290161,8882.471304,-1332.370696,78601.398095
88.292698,148.041188,38934.832549,77222.426198
88.295236,-148.041188,-5181.441594,79673.931792
88.297773,9622.677246,-5329.482782,81359.341888
88.300311,-1628.453072,10658.965565,81206.122788
88.302848,10510.924376,18061.024985,78294.959896
88.305386,-1480.411884,-3552.988522,77528.864398
88.307923,11843.295072,-21021.848753,77222.426198
88.310460,-6217.729913,20281.642811,81052.903688
88.312998,-4145.153275,22206.178260,87334.886772
88.315535,15100.201217,2368.659014,79061.055394
88.318074,-11399.171507,-7402.059420,74617.701505
88.320613,14656.077652,8882.471304,74004.825107
88.323151,5921.647536,-58180.187041,73698.386908
88.325690,-16580.613101,26647.413912,82125.437386
88.328228,6069.688724,-17320.819043,84883.381178
88.330767,18949.272115,-29608.237680,82585.094684
88.333306,-15544.324782,23242.466579,73391.948708
88.335844,13915.871710,-44116.274143,78141.740796
88.338383,15544.324782,-2368.659014,79980.369991
88.340921,-8290.306550,-28571.949361,79673.931792
88.343460,6217.729913,-23242.466579,77069.207099
88.345999,7698.141797,18505.148550,80286.808190
88.348537,2072.576638,17912.983796,82738.313784
88.351076,2664.741391,-15840.407159,76915.987999
88.353614,9770.718434,-14656.077652,75383.797003
88.356153,-1184.329507,-13471.748144,77682.083497
88.358692,3256.906145,-16580.613101,79980.369991
88.361230,5329.482782,-11991.336260,80286.808190
88.363769,5181.441594,6513.812290,79827.150892
88.366307,10510.924376,-6217.729913,79367.493593
88.368846,3997.112087,-5773.606348,77682.083497
88.371385,3849.070898,-33753.390955,78294.959896
88.373923,8142.265362,-16580.613101,78141.740796
88.376462,2960.823768,22502.260637,80899.684589
88.379000,-9622.677246,8290.306550,79673.931792
88.381539,13175.665768,-32717.102636,75996.673402
88.384078,6661.853478,-6661.853478,80133.589091
88.386616,5625.565159,-18061.024985,79827.150892
88.389155,-1184.329507,-21317.931130,77069.207099
88.391693,14063.912898,296.082377,76149.892501
88.394232,4737.318029,34937.720462,83197.971083
88.396771,-18505.148550,-7846.182985,84576.942979
88.399309,1480.411884,-45004.521274,74311.263306
88.401848,35677.926404,16580.613101,78448.178995
88.404386,-22058.137072,12435.459826,81206.122788
88.406925,6957.935855,-5625.565159,79367.493593
88.409464,8734.430116,63509.669824,79061.055394
88.412002,-20429.683999,11843.295072,85955.914876
88.414541,24426.796086,-42191.738694,78754.617194
88.417079,444.123565,-26647.413912,70174.347617
88.419618,21910.095883,35381.844028,77375.645298
88.422157,17024.736666,-26055.249158,81512.560987
88.424696,26351.331535,31680.814318,78754.617194
88.427235,-1480.411884,21169.889941,75077.358804
88.429774,12139.377449,-18801.230927,81665.780087
88.432313,-12583.501014,-9178.553681,80440.027290
88.434852,6217.729913,16728.654289,79827.150892
88.437391,12583.501014,6661.853478,80286.808190
88.439929,8142.265362,7402.059420,78448.178995
88.442468,3552.988522,19837.519246,77375.645298
88.445007,3256.906145,1480.411884,79827.150892
88.447546,9474.636058,-12731.542202,82125.437386
88.450085,9474.636058,16876.695478,79520.712692
88.452624,3404.947333,7254.018232,76915.987999
88.455163,2516.700203,-33753.390955,75077.358804
88.457702,-6365.771101,17468.860231,78601.398095
88.460241,0.000000,12879.583391,84423.723880
88.462780,10362.883188,17764.942608,83504.409282
88.465318,3552.988522,-10214.842000,75996.673402
88.467857,18653.189738,22502.260637,74004.825107
88.470396,-14063.912898,-21614.013506,76762.768900
88.472935,18061.024985,-7994.224174,82278.656485
88.475474,18653.189738,42191.738694,80440.027290
88.478013,-4293.194464,-22206.178260,85649.476676
88.480552,-14952.160028,15544.324782,75077.358804
88.483091,18801.230927,-25611.125593,74158.044206
88.485630,0.000000,-888.247130,81359.341888
88.488169,5773.606348,-44412.356520,80440.027290
88.490707,10362.883188,6217.729913,75996.673402
88.493246,-6365.771101,8142.265362,79061.055394
88.495785,8142.265362,-8290.306550,83197.971083
88.498324,5625.565159,10362.883188,78141.740796
88.500863,-888.247130,-33309.267390,75230.577904
88.503402,5181.441594,-6513.812290,78294.959896
88.505941,-296.082377,-9622.677246,79827.150892
88.508480,-1776.494261,-5921.647536,79827.150892
88.511019,13471.748144,8882.471304,80133.589091
88.513558,11547.212695,4885.359217,79827.150892
88.516096,-740.205942,-13767.830521,77988.521696
88.518635,6217.729913,-21169.889941,76149.892501
88.521175,6069.688724,-16876.695478,78754.617194
88.523716,8586.388927,444.123565,80899.684589
88.526256,-5625.565159,18949.272115,80899.684589
88.528796,-6217.729913,-40711.326810,77375.645298
88.531336,11843.295072,-9770.718434,78601.398095
88.533876,3256.906145,740.205942,80440.027290
88.536417,-6217.729913,-36714.214723,77835.302597
88.538957,3997.112087,3108.864956,78754.617194
88.541497,18061.024985,45448.644839,84423.723880
88.544037,-5921.647536,-31088.649564,77528.864398
88.546577,-5625.565159,-18949.272115,76149.892501
88.549117,28127.825796,26795.455100,78907.836294
88.551658,-444.123565,-21317.931130,79061.055394
88.554198,15248.242405,24722.878463,78601.398095
88.556738,15396.283594,53886.992578,77528.864398
88.559278,-22058.137072,5181.441594,86109.133975
88.561818,3256.906145,-41895.656317,78448.178995
88.564358,11103.089130,-15248.242405,72166.195912
88.566899,-26055.249158,25315.043216,82431.875585
88.569439,-1480.411884,-26351.331535,83044.751983
88.571979,27091.537477,32421.020260,76609.549800
88.574519,-6217.729913,7550.100608,77528.864398
88.577059,2220.617826,-35677.926404,79980.369991
88.579600,4293.194464,8290.306550,78601.398095
88.582140,8882.471304,22798.343014,79827.150892
88.584680,10214.842000,-19985.560434,78907.836294
88.587220,11251.130318,23538.548956,78754.617194
88.589760,-9918.759623,30644.525999,77682.083497
88.592300,3552.988522,-18949.272115,81206.122788
88.594841,11547.212695,3256.906145,80133.589091
88.597381,4293.194464,9178.553681,78754.617194
88.599921,7550.100608,-29904.320057,76303.111601
88.602461,-5625.565159,9474.636058,76762.768900
88.605001,4737.318029,23686.590144,82278.656485
88.607541,9326.594869,15100.201217,83351.190182
88.610082,8734.430116,-13619.789333,77682.083497
88.612622,13175.665768,23390.507767,73391.948708
88.615162,-14508.036463,-21317.931130,77222.426198
88.617702,21021.848753,-6957.935855,82891.532884
88.620242,16284.530724,42043.697506,79214.274493
88.622778,-4293.194464,-19393.395680,84576.942979
88.625318,-17764.942608,9326.594869,76456.330700
88.627858,22650.301825,-19837.519246,75843.454302
88.630398,-1776.494261,-740.205942,80593.246390
88.632939,7402.059420,-41451.532752,81359.341888
88.635479,7994.224174,12287.418637,77988.521696
88.638019,-13175.665768,1332.370696,77222.426198
88.640559,4737.318029,-7254.018232,82278.656485
88.643100,7550.100608,20133.601622,78754.617194
88.645640,1036.288319,-30348.443622,77375.645298
88.648180,6957.935855,-9770.718434,78141.740796
88.650720,-1480.411884,-27091.537477,78141.740796
88.653261,592.164754,2664.741391,78907.836294
88.655801,11843.295072,8882.471304,80593.246390
88.658341,10362.883188,-7994.224174,79673.931792
88.660881,-3404.947333,2960.823768,78141.740796
88.663422,5773.606348,-27387.619854,77375.645298
88.665962,9622.677246,-6661.853478,79061.055394
88.668502,-9770.718434,9918.759623,81665.780087
88.671043,9622.677246,-24426.796086,79214.274493
88.673583,9178.553681,3404.947333,76915.987999
88.676123,-740.205942,-17912.983796,77222.426198
88.678663,6365.771101,-22206.178260,79520.712692
88.681204,21910.095883,-10510.924376,76915.987999
88.683744,-2220.617826,8882.471304,79367.493593
88.686284,-20133.601622,11695.253884,83810.847481
88.688824,13471.748144,-45744.727216,74158.044206
88.691365,21317.931130,22946.384202,78754.617194
88.693905,-19837.519246,1480.411884,82278.656485
88.696445,8586.388927,-14952.160028,79673.931792
88.698985,-1924.535449,47521.221476,78448.178995
88.701526,1332.370696,10807.006753,81206.122788
88.704066,20429.683999,-11103.089130,79673.931792
88.706606,-12879.583391,-37158.338288,75230.577904
88.709146,24870.919651,23538.548956,79214.274493
88.711687,15988.448347,0.000000,80746.465489
88.714227,5921.647536,9918.759623,80899.684589
88.716767,7254.018232,33013.185013,76762.768900
88.719307,8586.388927,-21762.054695,79367.493593
88.721848,-16728.654289,-12287.418637,79061.055394
88.724388,8586.388927,8882.471304,79827.150892
88.726927,9030.512492,-5181.441594,81512.560987
88.729467,-740.205942,16284.530724,80133.589091
88.732007,12731.542202,30496.484810,78448.178995
88.734547,-296.082377,9622.677246,79520.712692
88.737087,1924.535449,-17912.983796,79214.274493
88.739627,6069.688724,-3997.112087,76915.987999
88.742167,10658.965565,-1628.453072,79520.712692
88.744707,-15396.283594,-3256.906145,79367.493593
88.747247,12879.583391,21762.054695,79673.931792
88.749786,2072.576638,29016.072926,79367.493593
88.752326,-3552.988522,-31680.814318,79061.055394
88.754866,30052.361245,21910.095883,74004.825107
88.757406,-12139.377449,-34049.473332,75383.797003
88.759946,-9474.636058,5773.606348,83351.190182
88.762486,25907.207970,3849.070898,81359.341888
88.765026,1628.453072,-5625.565159,82585.094684
88.767566,-10807.006753,5329.482782,76456.330700
88.770106,21465.972318,-39378.956114,78294.959896
88.772646,4145.153275,4441.235652,80133.589091
88.775185,1776.494261,-46336.891969,80133.589091
88.777725,14952.160028,13915.871710,77222.426198
88.780265,-14508.036463,11103.089130,79520.712692
88.782805,888.247130,-444.123565,83810.847481
88.785345,11843.295072,15248.242405,79061.055394
88.787885,-1036.288319,-27683.702231,78294.959896
88.790425,0.000000,-18801.230927,77988.521696
88.792965,-1776.494261,-14508.036463,77222.426198
88.795505,-2664.741391,-9474.636058,79980.369991
88.798044,15544.324782,-13323.706956,82431.875585
88.800584,6513.812290,4885.359217,78448.178995
88.803124,-592.164754,-4737.318029,77528.864398
88.805664,3997.112087,-24278.754898,76609.549800
88.808204,888.247130,-20577.725188,79827.150892
88.810744,11399.171507,-13915.871710,78907.836294
88.813284,2812.782580,-10214.842000,78294.959896
88.815824,2516.700203,-12435.459826,78141.740796
88.818364,10066.800811,-4737.318029,77375.645298
88.820903,1628.453072,-22798.343014,76915.987999
88.823443,1184.329507,-11251.130318,81972.218286
88.825983,22502.260637,34197.514520,82431.875585
88.828522,14359.995275,-51518.333563,72166.195912
88.831062,740.205942,19097.313304,79520.712692
88.833601,-6513.812290,9474.636058,82278.656485
88.836140,5773.606348,-18505.148550,78754.617194
88.838680,4589.276840,35677.926404,79214.274493
88.841219,15100.201217,20429.683999,80286.808190
88.843758,-5477.523971,8142.265362,83504.409282
88.846298,-9622.677246,-30496.484810,76762.768900
88.848837,20577.725188,2812.782580,77682.083497
88.851377,-20873.807564,11991.336260,81972.218286
88.853916,4441.235652,-10807.006753,80440.027290
88.856455,7254.018232,30052.361245,76915.987999
88.858995,-2368.659014,2220.617826,83197.971083
88.861534,-3256.906145,-18505.148550,80286.808190
88.864074,1184.329507,-5477.523971,75383.797003
88.866613,3701.029710,10214.842000,79520.712692
88.869152,8586.388927,1628.453072,81972.218286
88.871692,16284.530724,17912.983796,79061.055394
88.874231,4145.153275,17172.777854,75843.454302
88.876771,1332.370696,-15988.448347,78754.617194
88.879310,-148.041188,-12435.459826,78448.178995
88.881849,19985.560434,6957.935855,79214.274493
88.884389,-5181.441594,1036.288319,79673.931792
88.886928,-296.082377,24870.919651,83810.847481
88.889468,4885.359217,9178.553681,75230.577904
88.892007,-10807.006753,-20281.642811,76149.892501
88.894546,7846.182985,2812.782580,76609.549800
88.897086,9918.759623,-55071.322085,80286.808190
88.899625,-31088.649564,25315.043216,81818.999186
88.902165,-2368.659014,-39823.079680,83044.751983
88.904704,19245.354492,-22206.178260,76915.987999
88.907243,-31384.731941,12435.459826,75230.577904
88.909783,22206.178260,-39971.120868,77835.302597
88.912322,6809.894666,1480.411884,79214.274493
88.914861,-2220.617826,-50778.127621,79673.931792
88.917401,8882.471304,-8290.306550,76762.768900
88.919940,6069.688724,25759.166782,79214.274493
88.922480,-6809.894666,-4737.318029,83351.190182
88.925019,9030.512492,1036.288319,79673.931792
88.927559,5181.441594,-11547.212695,78141.740796
88.930098,-4145.153275,-25907.207970,77222.426198
88.932638,6957.935855,-5921.647536,79367.493593
88.935178,-1776.494261,-3701.029710,79827.150892
88.937717,8142.265362,-6513.812290,80133.589091
88.940257,12731.542202,5921.647536,78754.617194
88.942797,-4145.153275,-5477.523971,78294.959896
88.945336,-2072.576638,-39675.038491,78141.740796
88.947876,14508.036463,-14063.912898,77835.302597
88.950416,-148.041188,-11991.336260,80286.808190
88.952955,1480.411884,-12287.418637,78141.740796
88.955495,13175.665768,12879.583391,76303.111601
88.958035,-16876.695478,-28868.031738,77988.521696
88.960574,9622.677246,-6513.812290,83044.751983
88.963114,17172.777854,27831.743419,82125.437386
88.965654,-24870.919651,-29756.278868,78448.178995
88.968193,5033.400406,-444.123565,76915.987999
88.970733,25018.960840,22058.137072,79673.931792
88.973273,-9770.718434,-23242.466579,77988.521696
88.975812,6069.688724,32272.979071,77988.521696
88.978352,14359.995275,25907.207970,78448.178995
88.980892,-22058.137072,8586.388927,84117.285680
88.983431,4737.318029,-24722.878463,77682.083497
88.985971,15396.283594,7105.977043,77835.302597
88.988511,-9326.594869,-2220.617826,81359.341888
88.991050,15396.283594,6069.688724,78754.617194
88.993590,-3552.988522,21021.848753,75690.235202
88.996130,-592.164754,11991.336260,81359.341888
88.998669,4293.194464,-9326.594869,83197.971083
89.001209,-6513.812290,4293.194464,77528.864398
89.003749,4293.194464,16432.571912,77988.521696
89.006288,15544.324782,-6217.729913,79980.369991
89.008827,9622.677246,28719.990550,80746.465489
89.011366,2516.700203,9918.759623,77069.207099
89.013905,4145.153275,-11695.253884,79827.150892
89.016444,-7994.224174,-17172.777854,78907.836294
89.018984,7254.018232,27683.702231,79061.055394
89.021523,11251.130318,16876.695478,80440.027290
89.024062,2960.823768,24278.754898,84883.381178
89.026601,7254.018232,-3552.988522,75230.577904
89.029140,-13323.706956,-10955.047942,74770.920605
89.031679,-17320.819043,-3256.906145,79673.931792
89.034218,46336.891969,-36418.132346,83810.847481
89.036757,-6661.853478,39971.120868,78907.836294
89.039296,-2812.782580,-20577.725188,83044.751983
89.041835,24574.837274,-9474.636058,75077.358804
89.044374,-14804.118840,20429.683999,74770.920605
89.046913,4737.318029,-34345.555709,82431.875585
89.049452,15544.324782,-9030.512492,78754.617194
89.051991,-3256.906145,-56255.651592,77835.302597
89.054530,592.164754,-444.123565,75690.235202
89.057069,4737.318029,12139.377449,79214.274493
89.059608,-3256.906145,-2960.823768,83351.190182
89.062148,3849.070898,-20429.683999,78448.178995
89.064687,17468.860231,4589.276840,77835.302597
89.067226,-2516.700203,-26647.413912,76915.987999
89.069765,6365.771101,-36862.255912,78294.959896
89.072304,6809.894666,18801.230927,78907.836294
89.074843,1924.535449,-444.123565,81972.218286
89.077382,1776.494261,-10214.842000,79367.493593
89.079921,4441.235652,-740.205942,77835.302597
89.082460,-888.247130,-9918.759623,76915.987999
89.084999,9178.553681,-41155.450375,80593.246390
89.087538,7550.100608,1184.329507,80286.808190
89.090077,3552.988522,18801.230927,77988.521696
89.092616,-13767.830521,-9770.718434,77222.426198
89.095155,17024.736666,-3849.070898,81206.122788
89.097694,6661.853478,15396.283594,83504.409282
89.100233,-26055.249158,-16284.530724,81665.780087
89.102772,16876.695478,-29164.114115,75690.235202
89.105312,5625.565159,30644.525999,77835.302597
89.107851,-24426.796086,444.123565,83044.751983
89.110345,15100.201217,3404.947333,79061.055394
89.112840,1184.329507,17172.777854,78294.959896
89.115335,-7846.182985,-1924.535449,81818.999186
89.117830,16136.489536,6661.853478,76762.768900
89.120325,13323.706956,-5033.400406,77835.302597
89.122820,-740.205942,7254.018232,80593.246390
89.125315,12287.418637,6217.729913,79520.712692
89.127810,-7105.977043,17024.736666,76762.768900
89.130305,5477.523971,12139.377449,78754.617194
89.132799,15396.283594,-5477.523971,82125.437386
89.135294,-1184.329507,17616.901420,81512.560987
89.137789,9030.512492,8734.430116,77528.864398
89.140284,-3849.070898,-4737.318029,77528.864398
89.142779,5033.400406,15840.407159,81512.560987
89.145274,8882.471304,22946.384202,79980.369991
89.147769,3108.864956,-8586.388927,78754.617194
89.150264,-3701.029710,-38638.750172,77222.426198
89.152758,-7402.059420,29904.320057,77988.521696
89.155253,10955.047942,16136.489536,82431.875585
89.157748,9918.759623,14211.954086,82585.094684
89.160243,11103.089130,-16136.489536,75383.797003
89.162738,9030.512492,7994.224174,74158.044206
89.165233,-18209.066173,-1480.411884,78141.740796
89.167728,40267.203245,-34641.638086,82891.532884
89.170223,1480.411884,50334.004056,80286.808190
89.172717,-5625.565159,-21465.972318,83504.409282
89.175212,23982.672521,-7846.182985,74464.482406
89.177707,18357.107362,13767.830521,74924.139704
89.180202,-12139.377449,-10807.006753,84423.723880
89.182697,13619.789333,-14952.160028,80593.246390
89.185192,18801.230927,-23686.590144,75077.358804
89.187687,-10955.047942,-23094.425390,76456.330700
89.190182,12435.459826,16876.695478,80593.246390
89.192677,-8586.388927,6957.935855,81512.560987
89.195171,9622.677246,-25018.960840,78907.836294
89.197666,13471.748144,-444.123565,77069.207099
89.200161,-10066.800811,-8438.347739,78601.398095
89.202656,5921.647536,-38046.585419,77988.521696
89.205151,13323.706956,-888.247130,79980.369991
89.207646,10066.800811,14211.954086,81665.780087
89.210151,3404.947333,-7105.977043,78448.178995
89.212656,-888.247130,0.000000,76762.768900
89.215162,-2812.782580,-44264.315332,80440.027290
89.217667,10510.924376,-14656.077652,79980.369991
89.220172,5625.565159,3108.864956,77835.302597
89.222677,592.164754,2220.617826,78448.178995
89.225183,17320.819043,-14063.912898,75690.235202
89.227688,-3108.864956,-4293.194464,81818.999186
89.230193,15248.242405,16284.530724,82125.437386
89.232698,19097.313304,-54331.116143,75230.577904
89.235204,-4589.276840,26795.455100,77375.645298
89.237709,-15692.365970,-10214.842000,80746.465489
89.240214,11399.171507,12139.377449,78907.836294
89.242719,-6809.894666,10510.924376,78907.836294
89.245225,20281.642811,10658.965565,80899.684589
89.247730,-4441.235652,19985.560434,79061.055394
89.250235,-10066.800811,-39526.997303,77988.521696
89.252740,21317.931130,23982.672521,80133.589091
89.255246,-8142.265362,3701.029710,81818.999186
89.257751,11103.089130,-10066.800811,78448.178995
89.260256,9770.718434,37750.503042,75383.797003
89.262761,3108.864956,-5921.647536,82431.875585
89.265267,4589.276840,-9474.636058,79367.493593
89.267772,4737.318029,11399.171507,77988.521696
89.270277,-4145.153275,-2664.741391,79827.150892
89.272783,7846.182985,-888.247130,79214.274493
89.275288,2960.823768,26203.290347,78907.836294
89.277793,444.123565,-3256.906145,79673.931792
89.280298,15248.242405,-45596.686027,76456.330700
89.282804,-6365.771101,23094.425390,77222.426198
89.285309,4145.153275,16580.613101,82278.656485
89.287814,11399.171507,12879.583391,82891.532884
89.290319,8586.388927,-18801.230927,75537.016103
89.292825,19245.354492,19097.313304,74770.920605
89.295330,-14211.954086,-13175.665768,77528.864398
89.297835,8142.265362,-15248.242405,83657.628382
89.300340,31828.855506,27091.537477,78601.398095
89.302846,-2812.782580,-4737.318029,83657.628382
89.305351,-4293.194464,-1480.411884,76609.549800
89.307856,24278.754898,11103.089130,75537.016103
89.310369,-16284.530724,-9030.512492,82585.094684
89.312883,12731.542202,-23834.631332,80133.589091
89.315396,22946.384202,-22798.343014,75996.673402
89.317909,-15100.201217,-18209.066173,76762.768900
89.320422,4737.318029,18061.024985,82278.656485
89.322936,-888.247130,4441.235652,79980.369991
89.325449,2516.700203,-28423.908173,78294.959896
89.327962,5773.606348,-12139.377449,75537.016103
89.330476,-888.247130,-21910.095883,77835.302597
89.332989,2812.782580,-4293.194464,79367.493593
89.335502,9622.677246,7994.224174,80593.246390
89.338015,12139.377449,6661.853478,81206.122788
89.340529,-8882.471304,-740.205942,79673.931792
89.343042,7550.100608,-29608.237680,76915.987999
89.345555,13323.706956,-31088.649564,77069.207099
89.348068,-2220.617826,-20281.642811,77988.521696
89.350582,9326.594869,3404.947333,79673.931792
89.353095,740.205942,-7846.182985,75996.673402
89.355608,-4441.235652,-11103.089130,81512.560987
89.358121,18357.107362,31976.896694,83657.628382
89.360635,-14359.995275,-44560.397708,76915.987999
89.363148,9918.759623,11103.089130,79367.493593
89.365661,24426.796086,21021.848753,77222.426198
89.368175,5773.606348,-3404.947333,79673.931792
89.370688,3552.988522,34641.638086,78754.617194
89.373201,14952.160028,16432.571912,78754.617194
89.375714,-26647.413912,-6217.729913,83197.971083
89.378228,2072.576638,-27387.619854,77682.083497
89.380741,19837.519246,15692.365970,77835.302597
89.383254,-2664.741391,1628.453072,80746.465489
89.385767,20577.725188,5773.606348,79520.712692
89.388281,-4589.276840,32124.937883,77069.207099
89.390794,-2220.617826,-9622.677246,79673.931792
89.393307,16136.489536,-592.164754,81665.780087
89.395820,-1480.411884,6957.935855,78907.836294
89.398334,4293.194464,8586.388927,79061.055394
89.400847,-148.041188,-1628.453072,78754.617194
89.403360,2664.741391,19689.478057,80133.589091
89.405873,8142.265362,8142.265362,80593.246390
89.408387,18061.024985,-21317.931130,78448.178995
89.410907,-10955.047942,8142.265362,77835.302597
89.413428,2220.617826,7698.141797,80746.465489
89.415949,13619.789333,24870.919651,80593.246390
89.418469,2072.576638,-18061.024985,76456.330700
89.420990,16580.613101,16728.654289,75843.454302
89.423510,-20429.683999,-9178.553681,77835.302597
89.426031,18949.272115,-24278.754898,81818.999186
89.428552,22650.301825,41303.491564,79520.712692
89.431072,-6957.935855,-11399.171507,85649.476676
89.433593,10214.842000,1036.288319,77069.207099
89.436113,32717.102636,-16728.654289,77069.207099
89.438634,-9030.512492,-6661.853478,81512.560987
89.441154,12583.501014,-25611.125593,79980.369991
89.443675,27831.743419,-12287.418637,75383.797003
89.446196,-9178.553681,-15396.283594,78141.740796
89.448716,296.082377,-1036.288319,81052.903688
89.451237,5773.606348,-1036.288319,79980.369991
89.453757,8734.430116,-13323.706956,77835.302597
89.456278,148.041188,-9770.718434,76915.987999
89.458799,444.123565,-10955.047942,79673.931792
89.461319,7105.977043,-15396.283594,78448.178995
89.463840,13175.665768,10066.800811,79520.712692
89.466360,-4737.318029,-12731.542202,81052.903688
89.468881,3108.864956,-2960.823768,78754.617194
89.471402,6513.812290,-28275.866984,77528.864398
89.473922,4441.235652,-34345.555709,77069.207099
89.476443,8142.265362,4293.194464,78294.959896
89.478963,-7402.059420,-2368.659014,79673.931792
89.481484,26351.331535,-7698.141797,77222.426198
89.484005,-740.205942,7698.141797,80593.246390
89.486525,1924.535449,9622.677246,83197.971083
89.489046,24574.837274,-53738.951389,74311.263306
89.491566,-10510.924376,23390.507767,77069.207099
89.494087,-24722.878463,-7994.224174,83044.751983
89.496608,14359.995275,22946.384202,79673.931792
89.499128,-7105.977043,14211.954086,78294.959896
89.501649,7254.018232,7846.182985,80440.027290
89.504169,-1628.453072,15396.283594,79214.274493
89.506690,-8438.347739,-38194.626607,77375.645298
89.509211,22206.178260,26203.290347,77988.521696
89.511737,-1036.288319,3849.070898,82125.437386
89.514263,11843.295072,1480.411884,79520.712692
89.516789,9770.718434,28423.908173,74924.139704
89.519315,-1332.370696,3404.947333,82125.437386
89.521841,-6365.771101,2664.741391,79367.493593
89.524367,4145.153275,-3701.029710,77835.302597
89.526894,148.041188,4589.276840,79827.150892
89.529420,-592.164754,1184.329507,79980.369991
89.531946,8438.347739,9178.553681,77835.302597
89.534472,9030.512492,-14952.160028,77528.864398
89.536998,-5773.606348,-5921.647536,79673.931792
89.539524,7105.977043,27535.661042,81206.122788
89.542051,3849.070898,12879.583391,81972.218286
89.544577,10362.883188,-16284.530724,76609.549800
89.547103,2368.659014,20873.807564,75996.673402
89.549629,-17468.860231,-13767.830521,77835.302597
89.552155,15988.448347,-22946.384202,81665.780087
89.554681,19837.519246,34493.596897,78448.178995
89.557207,-10658.965565,-10362.883188,85955.914876
89.559734,9030.512492,-4145.153275,77375.645298
89.562260,19541.436869,27239.578666,74617.701505
89.564786,-17764.942608,-31532.773129,81359.341888
89.567312,21317.931130,-12731.542202,79673.931792
89.569838,7402.059420,-43820.191766,77069.207099
89.572364,-16136.489536,-14063.912898,77682.083497
89.574891,8586.388927,-1924.535449,80746.465489
89.577417,4737.318029,17616.901420,81972.218286
89.579943,4145.153275,-14804.118840,78754.617194
89.582469,5181.441594,-14656.077652,77375.645298
89.584995,6069.688724,-22650.301825,77375.645298
89.587521,1184.329507,-6217.729913,77988.521696
89.590048,6217.729913,10955.047942,79980.369991
89.592574,6809.894666,-4293.194464,81359.341888
89.595100,-2516.700203,-20133.601622,80593.246390
89.597626,7846.182985,-17912.983796,77988.521696
89.600152,2368.659014,-33605.349767,75537.016103
89.602678,11103.089130,-1332.370696,78141.740796
89.605204,-7550.100608,4145.153275,79367.493593
89.607731,17024.736666,-6217.729913,80593.246390
89.610257,9622.677246,24278.754898,81359.341888
89.612785,-26499.372724,-28127.825796,81512.560987
89.615315,18949.272115,-8586.388927,78754.617194
89.617845,10807.006753,24278.754898,77835.302597
89.620376,-21021.848753,-6809.894666,81512.560987
89.622906,7402.059420,25463.084405,80746.465489
89.625436,0.000000,17172.777854,79367.493593
89.627966,-5921.647536,2812.782580,81512.560987
89.630496,5477.523971,9474.636058,77682.083497
89.633026,2516.700203,-31088.649564,77682.083497
89.635556,9770.718434,17172.777854,78601.398095
89.638087,4145.153275,-3256.906145,80286.808190
89.640617,-444.123565,9622.677246,78448.178995
89.643147,8882.471304,12731.542202,77835.302597
89.645677,14359.995275,-5329.482782,79980.369991
89.648207,-10510.924376,-12731.542202,78294.959896
89.650737,10362.883188,11843.295072,78601.398095
89.653267,7550.100608,-1776.494261,78601.398095
89.655798,5181.441594,5181.441594,80133.589091
89.658328,9622.677246,2960.823768,77375.645298
89.660858,-4441.235652,11251.130318,81052.903688
89.663388,-3701.029710,20725.766376,80593.246390
89.665918,-2960.823768,8586.388927,81972.218286
89.668448,16876.695478,-10807.006753,77222.426198
89.670978,-7846.182985,12139.377449,75843.454302
89.673509,-7402.059420,-5625.565159,78141.740796
89.676039,32124.937883,-36270.091158,78601.398095
89.678569,-10658.965565,19541.436869,79061.055394
89.681099,1924.535449,-28127.825796,82891.532884
89.683629,26647.413912,-12879.583391,76456.330700
89.686159,-23390.507767,5625.565159,76609.549800
89.688689,9474.636058,-29904.320057,79367.493593
89.691219,12287.418637,-14359.995275,77222.426198
89.693750,-10214.842000,-27979.784608,77988.521696
89.696280,-10214.842000,-3404.947333,77988.521696
89.698810,17024.736666,-740.205942,80440.027290
89.701340,2960.823768,5181.441594,81052.903688
89.703870,4737.318029,-10066.800811,79827.150892
89.706400,11991.336260,148.041188,77222.426198
89.708930,-444.123565,-5921.647536,77988.521696
89.711461,-1776.494261,-34789.679274,78601.398095
89.713995,10807.006753,-9474.636058,78141.740796
89.716529,5921.647536,16728.654289,80133.589091
89.719063,0.000000,-30644.525999,80286.808190
89.721597,11991.336260,-14063.912898,79367.493593
89.724132,2516.700203,-22650.301825,75077.358804
89.726666,7698.141797,-2812.782580,77222.426198
89.729200,-7994.224174,-5773.606348,79827.150892
89.731734,7402.059420,-1628.453072,82125.437386
89.734269,6809.894666,20873.807564,81359.341888
89.736803,-23686.590144,-17912.983796,79827.150892
89.739337,15544.324782,-19245.354492,79367.493593
89.741871,9622.677246,19689.478057,77988.521696
89.744405,-20281.642811,-5181.441594,80746.465489
89.746940,7698.141797,13619.789333,79214.274493
89.749474,-2368.659014,21762.054695,80593.246390
89.752008,-148.041188,11843.295072,82891.532884
89.754542,11399.171507,-1628.453072,76303.111601
89.757076,7994.224174,-25611.125593,78141.740796
89.759611,0.000000,16876.695478,80440.027290
89.762145,3849.070898,-888.247130,78907.836294
89.764679,4293.194464,13175.665768,78141.740796
89.767213,4737.318029,24574.837274,79214.274493
89.769748,14656.077652,5773.606348,82431.875585
89.772282,-5477.523971,1036.288319,77528.864398
89.774816,3849.070898,11251.130318,78601.398095
89.777350,-1332.370696,12287.418637,82431.875585
89.779884,3701.029710,-1184.329507,80286.808190
89.782419,11547.212695,10658.965565,77682.083497
89.784953,-3404.947333,8882.471304,79827.150892
89.787487,5477.523971,10510.924376,83197.971083
89.790021,9474.636058,21465.972318,77988.521696
89.792555,9178.553681,-22650.301825,75843.454302
89.795090,7402.059420,29904.320057,78601.398095
89.797624,-15396.283594,-2368.659014,81206.122788
89.800158,10510.924376,-46484.933158,79520.712692
89.802692,16284.530724,35381.844028,78448.178995
89.805227,-8438.347739,-11695.253884,85189.819378
89.807761,15396.283594,-4441.235652,77222.426198
89.810295,14508.036463,-3404.947333,76303.111601
89.812829,-15544.324782,-12583.501014,81206.122788
89.815366,15544.324782,-20725.766376,79980.369991
89.817903,20429.683999,-27387.619854,75077.358804
89.820440,-21317.931130,-14211.954086,79061.055394
89.822977,-888.247130,-1628.453072,81206.122788
89.825514,14359.995275,-6217.729913,79367.493593
89.828051,7994.224174,-14656.077652,77988.521696
89.830588,9178.553681,4293.194464,78601.398095
89.833125,1480.411884,-11399.171507,79520.712692
89.835662,1036.288319,-17764.942608,77528.864398
89.838199,9030.512492,8586.388927,79827.150892
89.840736,10807.006753,-6809.894666,82125.437386
89.843273,9918.759623,-15100.201217,78601.398095
89.845810,0.000000,-20725.766376,75690.235202
89.848346,4293.194464,-8882.471304,75843.454302
89.850883,-7994.224174,-10362.883188,78754.617194
89.853420,19837.519246,-2220.617826,80899.684589
89.855957,3108.864956,1184.329507,80286.808190
89.858494,-6217.729913,17764.942608,82431.875585
89.861031,19541.436869,-55663.486838,73698.386908
89.863568,5033.400406,33457.308578,77682.083497
89.866105,-22058.137072,-7698.141797,80286.808190
89.868642,12879.583391,5329.482782,79367.493593
89.871179,-3404.947333,26499.372724,79827.150892
89.873716,-1480.411884,13619.789333,82738.313784
89.876253,5181.441594,15988.448347,78907.836294
89.878790,-1332.370696,-34937.720462,77682.083497
89.881327,19689.478057,18653.189738,78907.836294
89.883864,-296.082377,10955.047942,80440.027290
89.886401,1036.288319,-3108.864956,79214.274493
89.888938,9474.636058,42191.738694,78141.740796
89.891475,4145.153275,-19097.313304,80899.684589
89.894011,4737.318029,-3552.988522,79827.150892
89.896548,-296.082377,19393.395680,77375.645298
89.899085,5181.441594,-9622.677246,78448.178995
89.901622,6809.894666,-6069.688724,79214.274493
89.904159,3849.070898,33013.185013,81359.341888
89.906696,-9030.512492,6217.729913,80746.465489
89.909233,3701.029710,16580.613101,82278.656485
89.911770,6957.935855,8438.347739,77835.302597
89.914307,5181.441594,-19245.354492,75843.454302
89.916846,16728.654289,34049.473332,77682.083497
89.919385,-9474.636058,-8290.306550,81972.218286
89.921923,-4441.235652,-35381.844028,81052.903688
89.924462,16284.530724,11103.089130,77222.426198
89.927001,8142.265362,-296.082377,79061.055394
89.929540,-22058.137072,-15248.242405,78601.398095
89.932079,27979.784608,-4589.276840,77835.302597
89.934618,-8290.306550,-18061.024985,79980.369991
89.937156,11547.212695,-12139.377449,79520.712692
89.939695,23834.631332,-28571.949361,74924.139704
89.942234,-11843.295072,-15248.242405,78448.178995
89.944773,-3256.906145,9622.677246,80899.684589
89.947312,12583.501014,-8142.265362,79980.369991
89.949850,8290.306550,-5477.523971,79520.712692
89.952389,-148.041188,-3997.112087,78448.178995
89.954928,-296.082377,-19689.478057,77069.207099
89.957467,6809.894666,-4293.194464,78448.178995
89.960006,7698.141797,-11843.295072,81052.903688
89.962545,3108.864956,-11695.253884,81512.560987
89.965083,888.247130,-14063.912898,77528.864398
89.967622,1776.494261,-23686.590144,77222.426198
89.970161,8586.388927,-1628.453072,76762.768900
89.972700,-592.164754,-13175.665768,77682.083497
89.975239,296.082377,-11399.171507,83810.847481
89.977777,17764.942608,37898.544230,82125.437386
89.980316,-18061.024985,-30792.567187,77069.207099
89.982855,5033.400406,-1332.370696,79367.493593
89.985394,17616.901420,18357.107362,81206.122788
89.987933,17764.942608,-14359.995275,76609.549800
89.990472,-444.123565,29608.237680,78754.617194
89.993010,17616.901420,24278.754898,79061.055394
89.995549,-15840.407159,-2368.659014,82738.313784
89.998088,7402.059420,-6217.729913,76456.330700
90.000627,9178.553681,-25167.002028,75996.673402
90.003166,-5329.482782,17468.860231,80899.684589
90.005704,2220.617826,3997.112087,80133.589091
90.008243,5477.523971,6069.688724,76609.549800
90.010782,9622.677246,25907.207970,79520.712692
90.013321,11103.089130,-1036.288319,81512.560987
90.015860,-1480.411884,-888.247130,75537.016103
90.018401,6661.853478,2960.823768,76915.987999
90.020941,740.205942,148.041188,81359.341888
90.023482,6365.771101,14359.995275,81512.560987
90.026023,-3552.988522,7994.224174,76609.549800
90.028564,11695.253884,24722.878463,82585.094684
90.031105,592.164754,5477.523971,79061.055394
90.033646,9326.594869,-29164.114115,74617.701505
90.036187,6069.688724,28275.866984,75690.235202
90.038728,-13915.871710,-444.123565,83504.409282
90.041269,21614.013506,-40711.326810,81512.560987
90.043809,17764.942608,1036.288319,76149.892501
90.046350,-5033.400406,9326.594869,82278.656485
90.048891,-3701.029710,-17764.942608,79827.150892
90.051432,29904.320057,18801.230927,78141.740796
90.053973,-15988.448347,-20429.683999,80593.246390
90.056514,26943.496289,-8882.471304,78141.740796
90.059055,2960.823768,-24870.919651,75996.673402
90.061596,-12139.377449,-14508.036463,79673.931792
90.064136,18949.272115,9474.636058,79673.931792
90.066677,5921.647536,-1036.288319,80286.808190
90.069218,-6217.729913,-9918.759623,81052.903688
90.071759,-148.041188,-12287.418637,77528.864398
90.074300,0.000000,-22798.343014,76303.111601
90.076841,-4589.276840,0.000000,79520.712692
90.079382,9178.553681,-17912.983796,81359.341888
90.081923,16136.489536,-10510.924376,79520.712692
90.084464,-3997.112087,-15100.201217,78448.178995
90.087004,3997.112087,-23390.507767,77069.207099
90.089545,10362.883188,-1480.411884,75690.235202
90.092086,8438.347739,-20873.807564,77988.521696
90.094627,1184.329507,-7550.100608,83810.847481
90.097168,15248.242405,33605.349767,82585.094684
90.099709,-6809.894666,-36122.049970,70787.224015
90.102250,-1184.329507,27831.743419,79673.931792
90.104791,-3997.112087,11695.253884,82431.875585
90.107331,17024.736666,-13323.706956,77988.521696
90.109872,1036.288319,25167.002028,77528.864398
90.112413,14508.036463,29904.320057,80286.808190
90.114954,-10807.006753,-5625.565159,82431.875585
90.117495,6661.853478,-6513.812290,77222.426198
90.120037,7846.182985,-19689.478057,77528.864398
90.122579,-9178.553681,8734.430116,81665.780087
90.125120,-1036.288319,11399.171507,80286.808190
90.127662,1924.535449,9622.677246,77069.207099
90.130204,-2812.782580,-6217.729913,80899.684589
90.132746,10214.842000,-5181.441594,81512.560987
90.135288,2812.782580,10658.965565,76456.330700
90.137830,5625.565159,4885.359217,77835.302597
90.140371,10955.047942,-20281.642811,79673.931792
90.142913,740.205942,21465.972318,80593.246390
90.145455,3701.029710,45448.644839,81206.122788
90.147997,-1776.494261,6809.894666,82125.437386
90.150539,9326.594869,-14952.160028,77222.426198
90.153081,-5921.647536,1628.453072,74770.920605
90.155622,14952.160028,18949.272115,78601.398095
90.158164,14804.118840,-25167.002028,81818.999186
90.160706,-13619.789333,17912.983796,78907.836294
90.163248,-3256.906145,-17468.860231,80899.684589
90.165790,25018.960840,-12731.542202,76456.330700
90.168331,-20725.766376,-5625.565159,78448.178995
90.170873,7846.182985,-29164.114115,79673.931792
90.173415,12879.583391,-8734.430116,77988.521696
90.175957,-13619.789333,-24130.713709,79214.274493
90.178499,26499.372724,-14211.954086,75843.454302
90.181041,-444.123565,-5181.441594,79367.493593
90.183582,-14656.077652,2220.617826,82278.656485
90.186124,19985.560434,592.164754,79673.931792
90.188666,12435.459826,-1036.288319,77222.426198
90.191208,-5477.523971,-15396.283594,77069.207099
90.193750,3552.988522,-9622.677246,78141.740796
90.196291,4441.235652,-7698.141797,79827.150892
90.198833,7105.977043,-17468.860231,80440.027290
90.201375,0.000000,-15692.365970,79061.055394
90.203917,1628.453072,-14211.954086,77988.521696
90.206459,5329.482782,-7254.018232,77069.207099
90.209001,1628.453072,-22946.384202,76915.987999
90.211542,6069.688724,-12435.459826,82585.094684
90.214084,11103.089130,33457.308578,82125.437386
90.216626,-22354.219448,-20281.642811,72932.291410
90.219168,-6069.688724,4145.153275,79673.931792
90.221710,13767.830521,21169.889941,81052.903688
90.224252,6513.812290,-13471.748144,79061.055394
90.226794,2812.782580,14952.160028,78754.617194
90.229336,12731.542202,22058.137072,76609.549800
90.231878,-10955.047942,7550.100608,83810.847481
90.234420,5477.523971,5033.400406,78448.178995
90.236962,2516.700203,-34197.514520,75690.235202
90.239504,5329.482782,19541.436869,80746.465489
90.242046,6217.729913,7402.059420,80286.808190
90.244589,10510.924376,3701.029710,77222.426198
90.247131,7254.018232,12731.542202,78294.959896
90.249673,8142.265362,-2664.741391,82431.875585
90.252215,-1184.329507,-4885.359217,77375.645298
90.254757,8290.306550,10658.965565,76303.111601
90.257299,11103.089130,-11251.130318,79827.150892
90.259841,-740.205942,3849.070898,81052.903688
90.262383,14508.036463,49593.798114,81206.122788
90.264925,-2664.741391,16728.654289,80133.589091
90.267467,8142.265362,-36122.049970,76762.768900
90.270009,-11843.295072,8882.471304,75537.016103
90.272551,4293.194464,12435.459826,80133.589091
90.275093,29756.278868,-38638.750172,80899.684589
90.277635,444.123565,27979.784608,77682.083497
90.280177,-8734.430116,-15248.242405,81052.903688
90.282720,27831.743419,-11399.171507,75537.016103
90.285262,-9030.512492,2664.741391,77222.426198
90.287804,-5033.400406,-29164.114115,81818.999186
90.290346,25018.960840,-10066.800811,77988.521696
90.292888,-16136.489536,-24574.837274,77528.864398
90.295430,16136.489536,-11251.130318,75537.016103
90.297972,6217.729913,1184.329507,80440.027290
90.300514,-13323.706956,-2368.659014,82738.313784
90.303056,15248.242405,-740.205942,79061.055394
90.305598,11399.171507,-9178.553681,77988.521696
90.308140,-4885.359217,-18801.230927,76762.768900
90.310682,3997.112087,-12583.501014,77222.426198
90.313224,12583.501014,-13175.665768,79520.712692
90.315766,5033.400406,-11695.253884,80286.808190
90.318308,6217.729913,-12583.501014,78448.178995
90.320851,3256.906145,-6809.894666,76456.330700
90.323394,-5329.482782,-6365.771101,78448.178995
90.325937,23242.466579,-22058.137072,79061.055394
90.328480,1480.411884,3701.029710,80746.465489
90.331023,3701.029710,26351.331535,82278.656485
90.333566,22798.343014,-37010.297100,73851.606007
90.336109,12731.542202,33753.390955,78907.836294
90.338652,-20281.642811,3404.947333,83044.751983
90.341195,17764.942608,-4441.235652,78601.398095
90.343738,-5625.565159,16432.571912,77069.207099
90.346281,6069.688724,35085.761651,80746.465489
90.348824,888.247130,9474.636058,81665.780087
90.351367,6809.894666,-19393.395680,77988.521696
90.353911,14211.954086,-5625.565159,78601.398095
90.356454,-5477.523971,7846.182985,79827.150892
90.358997,-3997.112087,-3256.906145,78907.836294
90.361540,5181.441594,23094.425390,78601.398095
90.364083,2220.617826,7402.059420,80133.589091
90.366626,1036.288319,-5181.441594,81665.780087
90.369169,-2368.659014,-2812.782580,76303.111601
90.371712,13323.706956,-6809.894666,77988.521696
90.374255,2960.823768,7698.141797,79214.274493
90.376798,8586.388927,35529.885216,82891.532884
90.379341,-4885.359217,30348.443622,82738.313784
90.381884,5181.441594,-14508.036463,76609.549800
90.384427,-8734.430116,-17172.777854,73545.167808
90.386971,16580.613101,25611.125593,79061.055394
90.389514,10510.924376,-10807.006753,83044.751983
90.392057,-18061.024985,11103.089130,79367.493593
90.394600,2812.782580,-24722.878463,79061.055394
90.397143,18209.066173,-7846.182985,76456.330700
90.399686,-20577.725188,-9178.553681,78754.617194
90.402229,17764.942608,-28275.866984,79061.055394
90.404772,5329.482782,-12731.542202,79367.493593
90.407315,-7105.977043,-13027.624579,80133.589091
90.409858,21614.013506,-20281.642811,73851.606007
90.412401,-10066.800811,-11251.130318,79214.274493
90.414944,-4145.153275,-10362.883188,81818.999186
90.417488,12583.501014,2368.659014,80440.027290
90.420031,-444.123565,296.082377,79520.712692
90.422574,-11251.130318,-14952.160028,78754.617194
90.425117,740.205942,-5921.647536,79520.712692
90.427660,11695.253884,-18653.189738,78754.617194
90.430204,6365.771101,-6809.894666,79367.493593
90.432747,1776.494261,-13027.624579,78754.617194
90.435290,1332.370696,-3256.906145,78601.398095
90.437834,-6217.729913,-5921.647536,77528.864398
90.440377,21762.054695,-22502.260637,78294.959896
90.442920,-148.041188,2812.782580,80899.684589
90.445464,-2812.782580,20577.725188,82278.656485
90.448007,25907.207970,-49149.674549,71553.319513
90.450550,13767.830521,32272.979071,79520.712692
90.453094,-22946.384202,-148.041188,83044.751983
90.455637,19393.395680,3701.029710,78294.959896
90.458181,-3849.070898,13323.706956,76456.330700
90.460724,-296.082377,29608.237680,82431.875585
90.463267,1776.494261,15100.201217,81972.218286
90.465811,10955.047942,-21021.848753,77222.426198
90.468354,13915.871710,-6217.729913,77682.083497
90.470897,-5921.647536,6513.812290,80899.684589
90.473441,-2812.782580,-3404.947333,78141.740796
90.475984,3849.070898,11399.171507,77222.426198
90.478527,2812.782580,444.123565,81512.560987
90.481071,740.205942,-2368.659014,80746.465489
90.483614,-2664.741391,148.041188,75690.235202
90.486157,3849.070898,6069.688724,79827.150892
90.488701,2516.700203,-1184.329507,80286.808190
90.491244,17616.901420,35974.008781,82278.656485
90.493787,6513.812290,38638.750172,79061.055394
90.496331,888.247130,-55515.445650,74464.482406
90.498874,-8882.471304,5329.482782,75537.016103
90.501417,-3552.988522,7550.100608,80593.246390
90.503961,33013.185013,-34345.555709,81052.903688
90.506504,-14804.118840,19097.313304,79520.712692
90.509047,-8142.265362,-5773.606348,81052.903688
90.511591,19689.478057,-6809.894666,76303.111601
90.514134,6957.935855,9178.553681,77375.645298
90.516678,-12139.377449,-33901.432144,82738.313784
90.519221,28868.031738,-7254.018232,78294.959896
90.521764,-10066.800811,-26351.331535,76609.549800
90.524308,7846.182985,-21910.095883,75537.016103
90.526852,8586.388927,3552.988522,78754.617194
90.529396,-11399.171507,-22206.178260,81665.780087
90.531940,-2960.823768,2368.659014,80286.808190
90.534484,3997.112087,-6217.729913,79214.274493
90.537028,-12435.459826,-11991.336260,78754.617194
90.539572,7698.141797,-13619.789333,77682.083497
90.542116,19985.560434,-16432.571912,79214.274493
90.544660,8142.265362,-9770.718434,78448.178995
90.547204,1036.288319,-12583.501014,78294.959896
90.549748,4293.194464,-5181.441594,77682.083497
90.552292,10066.800811,-25315.043216,77528.864398
90.554836,-2072.576638,-14952.160028,81206.122788
90.557380,13175.665768,23538.548956,81052.903688
90.559924,-10510.924376,-20725.766376,76456.330700
90.562468,-2812.782580,444.123565,81665.780087
90.565012,25611.125593,20281.642811,79367.493593
90.567556,19985.560434,-9918.759623,77988.521696
90.570100,-3997.112087,14952.160028,77835.302597
90.572644,16728.654289,20577.725188,77835.302597
90.575188,-3997.112087,2368.659014,80899.684589
90.577732,-2664.741391,10066.800811,80746.465489
90.580276,-3404.947333,-22798.343014,78601.398095
90.582820,6661.853478,9770.718434,80593.246390
90.585364,5477.523971,6069.688724,78294.959896
90.587908,6217.729913,6809.894666,77682.083497
90.590452,7550.100608,27535.661042,79367.493593
90.592996,9178.553681,-148.041188,82125.437386
90.595540,2960.823768,-13471.748144,77835.302597
90.598084,3701.029710,15988.448347,78907.836294
90.600628,-6365.771101,-3701.029710,79980.369991
90.603172,16580.613101,33753.390955,83197.971083
90.605716,1036.288319,33901.432144,79980.369991
90.608260,2960.823768,-35677.926404,75383.797003
90.610804,-8734.430116,-1924.535449,75077.358804
90.613348,-148.041188,6661.853478,79980.369991
90.615892,35233.802839,-27387.619854,81359.341888
90.618436,-17024.736666,22946.384202,79214.274493
90.620980,-1036.288319,-28127.825796,80746.465489
90.623524,25018.960840,-17912.983796,75537.016103
90.626068,-2220.617826,5477.523971,76915.987999
90.628617,-7994.224174,-35381.844028,81818.999186
90.631161,27831.743419,-10510.924376,77069.207099
90.633706,-13767.830521,-23834.631332,78601.398095
90.636250,9770.718434,-24130.713709,75230.577904
90.638794,4441.235652,3256.906145,78448.178995
90.641339,-20725.766376,-11991.336260,82738.313784
90.643883,12731.542202,-5329.482782,80133.589091
90.646427,10807.006753,6365.771101,78294.959896
90.648972,-7402.059420,-18801.230927,78907.836294
90.651516,2960.823768,-4885.359217,79367.493593
90.654060,12139.377449,-7994.224174,78754.617194
90.656604,5625.565159,-24870.919651,78294.959896
90.659149,5477.523971,3256.906145,78907.836294
90.661693,-1480.411884,-6809.894666,78907.836294
90.664237,20725.766376,-26203.290347,77222.426198
90.666782,6513.812290,-3701.029710,79214.274493
90.669326,8438.347739,24278.754898,82125.437386
90.671870,10214.842000,-51666.374752,73238.729609
90.674415,-5625.565159,29608.237680,79827.150892
90.676959,2072.576638,13767.830521,81206.122788
90.679503,19985.560434,-14211.954086,78141.740796
90.682047,-1480.411884,14359.995275,76149.892501
90.684592,6809.894666,30200.402434,79673.931792
90.687136,1924.535449,-7846.182985,80593.246390
90.689680,6217.729913,-4293.194464,78907.836294
90.692225,-2516.700203,-14063.912898,77375.645298
90.694769,-3256.906145,3108.864956,80746.465489
90.697313,-296.082377,1332.370696,79827.150892
90.699858,2812.782580,21465.972318,78448.178995
90.702402,6217.729913,11991.336260,78448.178995
90.704946,11103.089130,-2368.659014,81512.560987
90.707491,3256.906145,-15248.242405,77988.521696
90.710035,3404.947333,13175.665768,78141.740796
90.712579,5921.647536,21021.848753,81359.341888
90.715123,-7550.100608,16728.654289,83044.751983
90.717668,6957.935855,22650.301825,77375.645298
90.720212,-1036.288319,-19097.313304,74311.263306
90.722756,11695.253884,19837.519246,77835.302597
90.725301,-2072.576638,-4737.318029,83657.628382
90.727845,444.123565,-16432.571912,81512.560987
90.730389,19689.478057,-2812.782580,75383.797003
90.732933,-10362.883188,11103.089130,82278.656485
90.735477,-296.082377,-2220.617826,79673.931792
90.738022,26351.331535,6661.853478,77222.426198
90.740566,-9770.718434,-23094.425390,80746.465489
90.743110,12435.459826,-6513.812290,80286.808190
90.745654,13027.624579,-10807.006753,75077.358804
90.748198,-1184.329507,-26647.413912,77222.426198
90.750742,8882.471304,-444.123565,79520.712692
90.753286,1184.329507,-2516.700203,81206.122788
90.755831,-5477.523971,-13471.748144,79061.055394
90.758375,11251.130318,-9918.759623,78448.178995
90.760919,-4293.194464,-9178.553681,79061.055394
90.763463,4737.318029,-10807.006753,79214.274493
90.766007,20133.601622,-12731.542202,77988.521696
90.768551,148.041188,-7254.018232,79827.150892
90.771095,4145.153275,-5625.565159,79980.369991
90.773640,15100.201217,-16580.613101,76149.892501
90.776184,-2368.659014,-19097.313304,79520.712692
90.778728,16136.489536,24870.919651,82125.437386
90.781272,-12879.583391,-24722.878463,76609.549800
90.783816,-5773.606348,7402.059420,81052.903688
90.786360,28868.031738,20281.642811,79061.055394
90.788904,5181.441594,-8438.347739,79061.055394
90.791449,-444.123565,9622.677246,78907.836294
90.793993,16876.695478,20281.642811,75690.235202
90.796537,-9622.677246,23390.507767,83351.190182
90.799081,-4589.276840,23686.590144,81972.218286
90.801625,296.082377,-12583.501014,78141.740796
90.804169,12139.377449,10510.924376,79673.931792
90.806713,3997.112087,12879.583391,79827.150892
90.809258,10066.800811,4441.235652,77069.207099
90.811802,10658.965565,17764.942608,77375.645298
90.814346,1924.535449,8734.430116,82125.437386
90.816890,4885.359217,-18209.066173,78754.617194
90.819434,4589.276840,14508.036463,77528.864398
90.821978,-5625.565159,17024.736666,81359.341888
90.824522,-148.041188,148.041188,82891.532884
90.827067,13323.706956,42931.944636,78907.836294
90.829611,-1776.494261,-13175.665768,75383.797003
90.832154,13323.706956,21021.848753,77988.521696
90.834698,0.000000,-7550.100608,83197.971083
90.837241,-6957.935855,-17764.942608,81972.218286
90.839785,15396.283594,-7254.018232,75383.797003
90.842328,-7550.100608,13175.665768,81818.999186
90.844872,-148.041188,-7994.224174,79367.493593
90.847415,28719.990550,6957.935855,76762.768900
90.849959,-20873.807564,-33161.226202,81512.560987
90.852502,22502.260637,-296.082377,79214.274493
90.855046,-296.082377,-23538.548956,77682.083497
90.857589,-296.082377,-30052.361245,77528.864398
90.860133,6513.812290,888.247130,78141.740796
90.862676,740.205942,1036.288319,81512.560987
90.865220,-5329.482782,-20133.601622,78907.836294
90.867763,19097.313304,-16580.613101,77375.645298
90.870307,2072.576638,-31828.855506,76915.987999
90.872850,-3997.112087,-14211.954086,78754.617194
90.875394,13619.789333,-10807.006753,78294.959896
90.877937,148.041188,-17320.819043,78601.398095
90.880481,3849.070898,740.205942,80746.465489
90.883024,13619.789333,-24722.878463,76303.111601
90.885568,-1184.329507,-11103.089130,77988.521696
90.888111,5625.565159,25018.960840,82125.437386
90.890655,19245.354492,-50630.086433,73391.948708
90.893198,-2812.782580,36862.255912,78907.836294
90.895742,-5477.523971,11547.212695,81359.341888
90.898285,22058.137072,-11399.171507,78294.959896
90.900829,-2960.823768,15988.448347,77682.083497
90.903372,18061.024985,22946.384202,77682.083497
90.905916,-444.123565,4293.194464,80593.246390
90.908459,-8290.306550,22058.137072,81972.218286
90.911003,3404.947333,-5181.441594,79520.712692
90.913546,11991.336260,4737.318029,79367.493593
90.916090,-888.247130,-8734.430116,78601.398095
90.918633,6365.771101,16136.489536,77069.207099
90.921177,4737.318029,22650.301825,79673.931792
90.923720,10955.047942,-20133.601622,81206.122788
90.926264,1036.288319,9326.594869,79827.150892
90.928807,-13619.789333,3997.112087,79214.274493
90.931351,20281.642811,9030.512492,81052.903688
90.933894,5477.523971,40119.162056,81359.341888
90.936438,2960.823768,-12731.542202,75537.016103
90.938981,888.247130,-740.205942,74770.920605
90.941524,6513.812290,11843.295072,80593.246390
90.944068,17024.736666,-37010.297100,82431.875585
90.946611,-8586.388927,27831.743419,77069.207099
90.949155,-4293.194464,-23834.631332,80746.465489
90.951698,26499.372724,-20429.683999,75077.358804
90.954241,-21465.972318,4885.359217,77835.302597
90.956785,10066.800811,-37454.420665,79980.369991
90.959328,14211.954086,-6365.771101,77682.083497
90.961871,-10362.883188,-22354.219448,79520.712692
90.964415,20873.807564,-5625.565159,75690.235202
90.966958,7846.182985,-15692.365970,76915.987999
90.969502,888.247130,-16136.489536,79520.712692
90.972045,9030.512492,888.247130,80440.027290
90.974588,2960.823768,-2960.823768,77682.083497
90.977132,4293.194464,-48261.427418,77988.521696
90.979675,2220.617826,-14211.954086,77528.864398
90.982218,-296.082377,-6069.688724,78907.836294
90.984762,6069.688724,-21317.931130,78294.959896
90.987305,7846.182985,2220.617826,79827.150892
90.989849,-1776.494261,-14508.036463,78907.836294
90.992392,3849.070898,-25167.002028,79367.493593
90.994935,17468.860231,38786.791361,79520.712692
90.997479,-28719.990550,-21762.054695,79673.931792
91.000022,7994.224174,-1332.370696,80440.027290
91.002565,25315.043216,28571.949361,80746.465489
91.005109,10807.006753,-15544.324782,77835.302597
91.007652,-5773.606348,7994.224174,78448.178995
91.010196,19097.313304,25315.043216,76762.768900
91.012739,-5033.400406,16876.695478,82278.656485
91.015282,-6513.812290,25018.960840,81359.341888
91.017826,12287.418637,-29312.155303,78907.836294
91.020369,11251.130318,-10807.006753,78141.740796
91.022912,-7550.100608,19245.354492,78907.836294
91.025456,-592.164754,-12583.501014,77375.645298
91.027999,14508.036463,4589.276840,78141.740796
91.030543,5329.482782,3404.947333,79980.369991
91.033086,2812.782580,1628.453072,79520.712692
91.035629,-15692.365970,-2516.700203,77835.302597
91.038173,15100.201217,9622.677246,81818.999186
91.040716,8438.347739,34197.514520,79980.369991
91.043259,2960.823768,-21910.095883,75537.016103
91.045803,-5625.565159,592.164754,75690.235202
91.048346,7105.977043,12139.377449,80593.246390
91.050890,20725.766376,-38786.791361,81818.999186
91.053433,-14804.118840,12435.459826,79673.931792
91.055976,4885.359217,-37158.338288,78141.740796
91.058520,14952.160028,-6661.853478,75690.235202
91.061063,-17616.901420,7698.141797,77222.426198
91.063606,8586.388927,-40711.326810,81206.122788
91.066150,14804.118840,-3997.112087,77375.645298
91.068693,-11695.253884,-22502.260637,78754.617194
91.071237,21169.889941,-8586.388927,75843.454302
91.073780,3849.070898,-15988.448347,79061.055394
91.076323,-10066.800811,-5477.523971,80746.465489
91.078867,6069.688724,16284.530724,80746.465489
91.081410,444.123565,-5773.606348,80440.027290
91.083954,16876.695478,-24870.919651,79214.274493
91.086497,8438.347739,-9030.512492,77069.207099
91.089040,1480.411884,-13915.871710,78601.398095
91.091584,14359.995275,-11547.212695,78294.959896
91.094127,3108.864956,-148.041188,78141.740796
91.096670,9474.636058,-28127.825796,78141.740796
91.099214,5033.400406,-2368.659014,80133.589091
91.101757,12139.377449,19097.313304,81206.122788
91.104301,1036.288319,-36566.173535,75077.358804
91.106844,-10955.047942,14804.118840,80286.808190
91.109387,12435.459826,24870.919651,82278.656485
91.111931,16432.571912,-19097.313304,76762.768900
91.114474,-2516.700203,12435.459826,77988.521696
91.117018,12139.377449,20577.725188,77528.864398
91.119561,5033.400406,4441.235652,81206.122788
91.122104,-4293.194464,18505.148550,80133.589091
91.124648,1480.411884,-14656.077652,78448.178995
91.127191,11991.336260,-9030.512492,80286.808190
91.129734,-7402.059420,20133.601622,79061.055394
91.132278,-592.164754,6069.688724,78294.959896
91.134821,10214.842000,-2220.617826,78294.959896
91.137364,4589.276840,8734.430116,81972.218286
91.139907,-296.082377,25018.960840,81052.903688
91.142450,-1776.494261,592.164754,77988.521696
91.144993,-148.041188,4293.194464,83351.190182
91.147536,7994.224174,37898.544230,79520.712692
91.150079,3552.988522,-8142.265362,73238.729609
91.152622,6365.771101,13619.789333,78907.836294
91.155164,-6661.853478,4589.276840,84423.723880
91.157707,13767.830521,-33605.349767,81665.780087
91.160250,10658.965565,23538.548956,75537.016103
91.162793,-8142.265362,740.205942,82431.875585
91.165336,12139.377449,-7254.018232,79367.493593
91.167879,6809.894666,3256.906145,76915.987999
91.170422,-15248.242405,-36862.255912,81359.341888
91.172965,18357.107362,-740.205942,78141.740796
91.175508,-5773.606348,-27239.578666,78448.178995
91.178051,-8586.388927,-10214.842000,79367.493593
91.180594,22946.384202,-3108.864956,78448.178995
91.183136,2664.741391,-11547.212695,78754.617194
91.185679,-16728.654289,-3701.029710,79367.493593
91.188222,13767.830521,-3256.906145,80133.589091
91.190765,8290.306550,-36418.132346,78294.959896
91.193308,1776.494261,-740.205942,79980.369991
91.195851,11547.212695,-15100.201217,76456.330700
91.198394,2368.659014,-1332.370696,78601.398095
91.200937,-11695.253884,-17912.983796,81052.903688
91.203480,5329.482782,-23390.507767,79367.493593
91.206023,9178.553681,22502.260637,79367.493593
91.208566,-22798.343014,-16876.695478,79520.712692
91.211108,2368.659014,-4293.194464,81206.122788
91.213651,23834.631332,29608.237680,79061.055394
91.216194,-6809.894666,-3701.029710,79214.274493
91.218737,888.247130,-5181.441594,79673.931792
91.221280,13915.871710,26203.290347,77988.521696
91.223823,-8586.388927,23538.548956,83351.190182
91.226366,2220.617826,2368.659014,79520.712692
91.228909,13323.706956,-9622.677246,77528.864398
91.231452,3404.947333,10955.047942,80133.589091
91.233995,11843.295072,7846.182985,80133.589091
91.236538,8882.471304,-7402.059420,76915.987999
91.239046,17172.777854,2072.576638,76149.892501
91.241554,-4885.359217,21169.889941,80286.808190
91.244062,-3404.947333,16580.613101,83810.847481
91.246570,1332.370696,1628.453072,78754.617194
91.249078,-444.123565,11547.212695,81972.218286
91.251586,12583.501014,30644.525999,79367.493593
91.254094,-296.082377,-28423.908173,74311.263306
91.256603,-1776.494261,11843.295072,77222.426198
91.259111,148.041188,-2220.617826,81972.218286
91.261619,26647.413912,-44116.274143,80899.684589
91.264127,-5625.565159,26943.496289,76303.111601
91.266635,-8438.347739,-2072.576638,80593.246390
91.269143,14211.954086,-8438.347739,78448.178995
91.271651,2812.782580,1184.329507,77222.426198
91.274159,-11103.089130,-38786.791361,81972.218286
91.276668,21169.889941,-1036.288319,77069.207099
91.279176,-8142.265362,-27387.619854,78601.398095
91.281684,3997.112087,-18949.272115,78601.398095
91.284192,13323.706956,6365.771101,78448.178995
91.286700,-9474.636058,-18653.189738,80133.589091
91.289208,3108.864956,-15988.448347,77222.426198
91.291716,12435.459826,-14508.036463,78141.740796
91.294224,-3849.070898,-18505.148550,78907.836294
91.296733,3256.906145,-16284.530724,78754.617194
91.299241,12287.418637,-3701.029710,79061.055394
91.301749,-296.082377,-8290.306550,77988.521696
91.304257,3849.070898,-12583.501014,76915.987999
91.306765,-3552.988522,-28275.866984,81052.903688
91.309273,16580.613101,26055.249158,80746.465489
91.311781,-16136.489536,-17468.860231,77528.864398
91.314289,1776.494261,-9030.512492,79520.712692
91.316798,23538.548956,31088.649564,79673.931792
91.319306,-10214.842000,148.041188,80133.589091
91.321814,-4737.318029,3256.906145,78141.740796
91.324322,13767.830521,30052.361245,77528.864398
91.326830,-3849.070898,17912.983796,83044.751983
91.329338,-1184.329507,13619.789333,79673.931792
91.331846,9326.594869,-6957.935855,77835.302597
91.334354,3701.029710,18653.189738,82278.656485
91.336863,10510.924376,4145.153275,79827.150892
91.339378,10955.047942,-6957.935855,74464.482406
91.341893,2664.741391,21465.972318,78754.617194
91.344408,148.041188,4737.318029,81972.218286
91.346923,9474.636058,444.123565,80899.684589
91.349438,5773.606348,34197.514520,79827.150892
91.351953,-148.041188,8438.347739,80899.684589
91.354468,2960.823768,9178.553681,78448.178995
91.356983,-6217.729913,6513.812290,75230.577904
91.359498,19245.354492,24426.796086,79520.712692
91.362013,888.247130,-20873.807564,82431.875585
91.364528,-3997.112087,148.041188,80899.684589
91.367043,20281.642811,-18061.024985,74464.482406
91.369558,-1332.370696,14508.036463,79214.274493
91.372073,-3997.112087,6217.729913,81512.560987
91.374589,20577.725188,-8882.471304,77682.083497
91.377104,-11843.295072,-23390.507767,81359.341888
91.379619,1628.453072,-7846.182985,80133.589091
91.382134,12139.377449,-17912.983796,77069.207099
91.384649,-8142.265362,-8438.347739,79673.931792
91.387164,10807.006753,-740.205942,79827.150892
91.389679,6809.894666,1036.288319,79061.055394
91.392194,-3256.906145,-16284.530724,78141.740796
91.394709,13323.706956,-17912.983796,77988.521696
91.397224,-296.082377,-14211.954086,78448.178995
91.399739,-148.041188,-11991.336260,80133.589091
91.402254,16432.571912,444.123565,78294.959896
91.404769,-11991.336260,-13323.706956,77528.864398
91.407284,17172.777854,-19837.519246,79673.931792
91.409799,14952.160028,5329.482782,78907.836294
91.412314,-16136.489536,5625.565159,80440.027290
91.414830,17912.983796,-36714.214723,74617.701505
91.417345,14063.912898,42191.738694,80286.808190
91.419860,-24722.878463,7402.059420,83351.190182
91.422375,20429.683999,-6809.894666,78294.959896
91.424890,-6809.894666,11103.089130,77682.083497
91.427405,2516.700203,27239.578666,81206.122788
91.429920,17912.983796,148.041188,79214.274493
91.432435,-4737.318029,7698.141797,77835.302597
91.434950,-3404.947333,-15840.407159,79980.369991
91.437465,740.205942,6365.771101,81206.122788
91.439987,-2960.823768,-6513.812290,76915.987999
91.442508,-740.205942,15396.283594,78448.178995
91.445030,15988.448347,6365.771101,80286.808190
91.447551,13175.665768,6957.935855,80593.246390
91.450072,-888.247130,31236.690752,78754.617194
91.452594,-7105.977043,-8882.471304,80746.465489
91.455115,9030.512492,26499.372724,79673.931792
91.457637,-1184.329507,-10807.006753,74004.825107
91.460158,2812.782580,15396.283594,77222.426198
91.462680,-740.205942,2516.700203,84423.723880
91.465201,27091.537477,-21021.848753,81359.341888
91.467723,9030.512492,16432.571912,76149.892501
91.470244,-6365.771101,2812.782580,82278.656485
91.472766,15544.324782,-740.205942,80746.465489
91.475287,4441.235652,-5773.606348,75996.673402
91.477809,-14656.077652,-30348.443622,82431.875585
91.480330,17172.777854,-2072.576638,78294.959896
91.482852,-2516.700203,-23538.548956,77835.302597
91.485373,296.082377,-15396.283594,78448.178995
91.487895,15840.407159,7254.018232,78907.836294
91.490416,-740.205942,-35677.926404,79520.712692
91.492938,4293.194464,1776.494261,75996.673402
91.495459,12139.377449,-10658.965565,78141.740796
91.497980,-2220.617826,-26351.331535,79214.274493
91.500502,10658.965565,-9918.759623,78601.398095
91.503023,7994.224174,5477.523971,77375.645298
91.505545,-15544.324782,-19985.560434,77528.864398
91.508066,17616.901420,-6365.771101,80899.684589
91.510588,5477.523971,-8142.265362,78601.398095
91.513109,1184.329507,24870.919651,81359.341888
91.515631,22058.137072,-49889.880491,73391.948708
91.518152,2368.659014,35974.008781,81665.780087
91.520674,-15692.365970,17912.983796,81972.218286
91.523195,12435.459826,-8586.388927,78907.836294
91.525717,-1628.453072,13175.665768,76915.987999
91.528238,-3108.864956,27979.784608,81665.780087
91.530760,16580.613101,-4441.235652,78754.617194
91.533281,740.205942,1480.411884,78601.398095
91.535803,-3997.112087,-3256.906145,80440.027290
91.538324,12731.542202,17616.901420,81665.780087
91.540817,1480.411884,-6661.853478,77069.207099
91.543309,4145.153275,3701.029710,76915.987999
91.545802,9918.759623,33753.390955,80746.465489
91.548295,-740.205942,-2812.782580,81818.999186
91.550787,9622.677246,21317.931130,80133.589091
91.553280,3256.906145,20725.766376,79827.150892
91.555772,0.000000,10066.800811,78141.740796
91.558265,-1036.288319,1776.494261,76609.549800
91.560758,15988.448347,37602.461854,79827.150892
91.563250,-1924.535449,-30200.402434,82125.437386
91.565743,3701.029710,-3701.029710,80593.246390
91.568236,7698.141797,4885.359217,76303.111601
91.570728,-5625.565159,148.041188,81972.218286
91.573221,8882.471304,4589.276840,80286.808190
91.575713,11991.336260,-3552.988522,77375.645298
91.578206,-17468.860231,-31384.731941,82278.656485
91.580699,8290.306550,2368.659014,78448.178995
91.583191,9474.636058,-25611.125593,75996.673402
91.585684,-13323.706956,-11547.212695,80899.684589
91.588177,13323.706956,4885.359217,79980.369991
91.590669,11991.336260,-13915.871710,78294.959896
91.593162,-1628.453072,-8290.306550,77375.645298
91.595654,8734.430116,-13915.871710,79520.712692
91.598147,740.205942,-24278.754898,80133.589091
91.600640,9770.718434,-9326.594869,77835.302597
91.603132,12731.542202,1036.288319,78601.398095
91.605625,-12731.542202,-24870.919651,78754.617194
91.608118,1184.329507,-12879.583391,80899.684589
91.610610,21762.054695,24722.878463,80133.589091
91.613103,-22946.384202,-22058.137072,77222.426198
91.615596,-444.123565,-592.164754,81512.560987
91.618088,25315.043216,26943.496289,79673.931792
91.620581,-8734.430116,4589.276840,79061.055394
91.623073,740.205942,-740.205942,79214.274493
91.625566,14359.995275,25907.207970,78294.959896
91.628059,-13323.706956,26499.372724,84117.285680
91.630551,1776.494261,-6809.894666,79214.274493
91.633044,12139.377449,-1924.535449,76762.768900
91.635537,-5033.400406,2664.741391,80286.808190
91.638029,-2664.741391,4737.318029,80593.246390
91.640525,3256.906145,-2664.741391,76609.549800
91.643029,10510.924376,15544.324782,77988.521696
91.645533,8142.265362,10955.047942,80899.684589
91.648037,1628.453072,15544.324782,81818.999186
91.650541,-3404.947333,4885.359217,81052.903688
91.653045,9326.594869,8142.265362,78294.959896
91.655549,2664.741391,-13175.665768,74770.920605
91.658053,-11991.336260,14359.995275,78141.740796
91.660557,7254.018232,5329.482782,82278.656485
91.663061,26351.331535,-60696.887244,79214.274493
91.665565,-17172.777854,18061.024985,76456.330700
91.668069,-7994.224174,-23686.590144,81359.341888
91.670573,30200.402434,-27683.702231,75690.235202
91.673077,-16580.613101,-1924.535449,75383.797003
91.675581,148.041188,-39971.120868,80899.684589
91.678085,19541.436869,-6513.812290,77375.645298
91.680589,-9326.594869,-22502.260637,77528.864398
91.683093,14804.118840,-14063.912898,77528.864398
91.685597,1924.535449,-740.205942,81052.903688
91.688101,-3849.070898,-6217.729913,80746.465489
91.690605,10066.800811,-5477.523971,76303.111601
91.693109,2516.700203,-24722.878463,77528.864398
91.695613,-148.041188,-19097.313304,80286.808190
91.698116,12731.542202,-1480.411884,77988.521696
91.700620,6957.935855,-8290.306550,78141.740796
91.703124,-13027.624579,-13323.706956,79520.712692
91.705628,3256.906145,-18061.024985,79520.712692
91.708132,10955.047942,8142.265362,79061.055394
91.710636,-16876.695478,1332.370696,81359.341888
91.713140,23242.466579,-25463.084405,75383.797003
91.715644,11547.212695,41895.656317,80593.246390
91.718148,-27387.619854,5033.400406,81972.218286
91.720652,20725.766376,-3701.029710,77682.083497
91.723156,-5773.606348,9326.594869,78141.740796
91.725660,-11103.089130,29460.196492,83964.066581
91.728164,8734.430116,-5033.400406,78601.398095
91.730668,8438.347739,-5181.441594,75996.673402
91.733172,-3108.864956,9918.759623,80286.808190
91.735676,11843.295072,-12435.459826,79980.369991
91.738180,8734.430116,-12731.542202,75383.797003
91.740693,3256.906145,22502.260637,77988.521696
91.743206,5181.441594,9474.636058,81206.122788
91.745719,2960.823768,7994.224174,80746.465489
91.748232,1480.411884,11991.336260,80899.684589
91.750745,13767.830521,8290.306550,78448.178995
91.753258,5033.400406,-16432.571912,73238.729609
91.755771,-7846.182985,23982.672521,78907.836294
91.758284,-2960.823768,-4145.153275,83044.751983
91.760797,32124.937883,-46632.974346,80133.589091
91.763310,-11103.089130,26499.372724,75383.797003
91.765823,-4145.153275,-36862.255912,79980.369991
91.768336,27091.537477,-35381.844028,75843.454302
91.770849,-17912.983796,7105.977043,75690.235202
91.773362,16876.695478,-39378.956114,79827.150892
91.775875,10066.800811,-4293.194464,78601.398095
91.778388,-9326.594869,-14804.118840,78294.959896
91.780901,22206.178260,-26203.290347,75690.235202
91.783414,6661.853478,9326.594869,80286.808190
91.785927,-6069.688724,-21169.889941,80286.808190
91.788441,10362.883188,444.123565,76303.111601
91.790954,3701.029710,-28423.908173,77375.645298
91.793467,-2220.617826,-26499.372724,80133.589091
91.795980,12583.501014,3404.947333,78754.617194
91.798493,6217.729913,-6957.935855,78907.836294
91.801006,-7550.100608,-20873.807564,78448.178995
91.803519,-888.247130,-12583.501014,79980.369991
91.806032,6809.894666,8290.306550,79980.369991
91.808545,-18505.148550,-7994.224174,81052.903688
91.811058,18357.107362,-14211.954086,81512.560987
91.813571,26795.455100,22058.137072,79827.150892
91.816084,-5773.606348,4441.235652,77222.426198
91.818597,-1628.453072,-4441.235652,77988.521696
91.821110,15396.283594,19097.313304,78448.178995
91.823623,-11991.336260,28275.866984,84270.504780
91.826136,4145.153275,-3256.906145,78294.959896
91.828649,9178.553681,-1184.329507,75537.016103
91.831162,-4293.194464,5625.565159,81206.122788
91.833675,11695.253884,0.000000,81206.122788
91.836188,11251.130318,7698.141797,76609.549800
91.838701,-8882.471304,12879.583391,78448.178995
91.841221,-10066.800811,592.164754,83044.751983
91.843742,14359.995275,28719.990550,82125.437386
91.846263,4145.153275,1924.535449,77835.302597
91.848783,592.164754,8882.471304,79214.274493
91.851304,7550.100608,2960.823768,75996.673402
91.853824,9326.594869,43524.109390,79827.150892
91.856345,-3108.864956,-11547.212695,83810.847481
91.858865,23686.590144,-25907.207970,80746.465489
91.861386,-3404.947333,38046.585419,76762.768900
91.863906,-6809.894666,-16136.489536,82125.437386
91.866427,26055.249158,-14952.160028,78294.959896
91.868947,-7698.141797,-5477.523971,77682.083497
91.871468,-14063.912898,-21465.972318,81818.999186
91.873988,15692.365970,1924.535449,77835.302597
91.876509,740.205942,-29608.237680,76456.330700
91.879029,-5921.647536,-11843.295072,80440.027290
91.881550,11399.171507,7550.100608,80133.589091
91.884070,2516.700203,-8142.265362,79673.931792
91.886591,7846.182985,-14063.912898,77988.521696
91.889111,7846.182985,-17764.942608,77528.864398
91.891632,-3108.864956,-22058.137072,79520.712692
91.894152,9326.594869,-7550.100608,77682.083497
91.896673,3849.070898,-13915.871710,79214.274493
91.899193,7698.141797,-16876.695478,78141.740796
91.901714,4441.235652,-148.041188,78448.178995
91.904234,4885.359217,21762.054695,81665.780087
91.906755,23834.631332,-50778.127621,73698.386908
91.909276,1332.370696,40119.162056,81052.903688
91.911796,-17468.860231,11843.295072,82738.313784
91.914317,25315.043216,-6217.729913,76762.768900
91.916837,-1924.535449,9770.718434,75843.454302
91.919358,11843.295072,21317.931130,80593.246390
91.921878,9326.594869,24278.754898,82431.875585
91.924399,-10362.883188,-2664.741391,78294.959896
91.926919,7402.059420,-7698.141797,78907.836294
91.929440,7698.141797,13915.871710,82585.094684
91.931960,-3108.864956,-888.247130,78448.178995
91.934481,-2220.617826,-148.041188,75690.235202
91.937001,592.164754,17616.901420,80746.465489
91.939522,5033.400406,27831.743419,84117.285680
91.942049,3108.864956,-3108.864956,79980.369991
91.944576,10658.965565,21465.972318,78141.740796
91.947103,1332.370696,-25315.043216,74158.044206
91.949630,-9326.594869,15840.407159,78601.398095
91.952158,4885.359217,17616.901420,83044.751983
91.954685,26943.496289,-60400.804867,78294.959896
91.957212,-3701.029710,33013.185013,76915.987999
91.959739,-14211.954086,-19541.436869,81818.999186
91.962266,27387.619854,-31236.690752,76762.768900
91.964793,-19097.313304,-1480.411884,76149.892501
91.967321,7402.059420,-31088.649564,81512.560987
91.969848,17616.901420,-12435.459826,76303.111601
91.972375,-7550.100608,-18801.230927,77222.426198
91.974902,15396.283594,-21910.095883,77222.426198
91.977429,5181.441594,5773.606348,80593.246390
91.979956,-10362.883188,-22650.301825,80593.246390
91.982484,10807.006753,-12731.542202,76149.892501
91.985011,4589.276840,-14359.995275,78754.617194
91.987538,-4737.318029,-24426.796086,79214.274493
91.990065,5921.647536,-5477.523971,77528.864398
91.992592,-592.164754,-14063.912898,79061.055394
91.995119,14508.036463,-27979.784608,78294.959896
91.997647,1480.411884,-2516.700203,77528.864398
92.000174,9770.718434,23834.631332,81052.903688
92.002701,13767.830521,-45004.521274,74158.044206
92.005228,444.123565,27683.702231,81512.560987
92.007755,1480.411884,15248.242405,81665.780087
92.010282,21317.931130,740.205942,76303.111601
92.012810,-7698.141797,5033.400406,78294.959896
92.015337,10510.924376,20281.642811,79827.150892
92.017864,11991.336260,22946.384202,81972.218286
92.020391,-10214.842000,-1924.535449,77988.521696
92.022918,5477.523971,-6365.771101,77682.083497
92.025445,1480.411884,19097.313304,82585.094684
92.027972,-4441.235652,-3997.112087,81359.341888
92.030500,9918.759623,2664.741391,76456.330700
92.033027,-888.247130,12879.583391,77835.302597
92.035554,5329.482782,32717.102636,83657.628382
92.038081,0.000000,-1036.288319,80286.808190
92.040608,9178.553681,15248.242405,78141.740796
92.043141,1184.329507,7105.977043,75996.673402
92.045673,1924.535449,20577.725188,79520.712692
92.048205,-2960.823768,11103.089130,83964.066581
92.050737,30200.402434,-46632.974346,78754.617194
92.053269,3997.112087,33161.226202,75996.673402
92.055802,-11695.253884,-22798.343014,82431.875585
92.058334,27979.784608,-26943.496289,77835.302597
92.060866,-15544.324782,-4885.359217,73851.606007
92.063398,4885.359217,-34197.514520,81359.341888
92.065931,16432.571912,-3404.947333,77988.521696
92.068463,-8438.347739,-22798.343014,77988.521696
92.070995,17320.819043,-19541.436869,76456.330700
92.073527,15988.448347,7550.100608,80286.808190
92.076060,-4441.235652,-26647.413912,78907.836294
92.078592,5477.523971,1184.329507,76149.892501
92.081124,6661.853478,-23686.590144,78294.959896
92.083656,-888.247130,-26795.455100,81359.341888
92.086189,11843.295072,5921.647536,77528.864398
92.088721,-10955.047942,-18949.272115,76609.549800
92.091253,14508.036463,-21169.889941,80593.246390
92.093785,5033.400406,3404.947333,78754.617194
92.096318,-1480.411884,21465.972318,80440.027290
92.098850,25167.002028,-50926.168810,73238.729609
92.101382,1628.453072,35233.802839,82278.656485
92.103914,-31384.731941,8438.347739,82431.875585
92.106446,20873.807564,1628.453072,77222.426198
92.108979,-1628.453072,12435.459826,76762.768900
92.111511,-592.164754,9918.759623,83044.751983
92.114043,23094.425390,23242.466579,79827.150892
92.116575,-3997.112087,-1332.370696,76609.549800
92.119108,-3701.029710,-6809.894666,79827.150892
92.121640,8438.347739,21021.848753,83657.628382
92.124172,5329.482782,-740.205942,78141.740796
92.126704,3256.906145,16432.571912,75843.454302
92.129237,4589.276840,6513.812290,80286.808190
92.131769,8882.471304,6661.853478,82431.875585
92.134301,10214.842000,30496.484810,77988.521696
92.136833,1776.494261,-18357.107362,75843.454302
92.139366,-3108.864956,-3552.988522,77682.083497
92.141898,14952.160028,48113.386230,81818.999186
92.144402,740.205942,-32272.979071,79827.150892
92.146906,-3404.947333,6365.771101,80593.246390
92.149410,9030.512492,-3997.112087,77682.083497
92.151914,5625.565159,-1924.535449,80440.027290
92.154418,5625.565159,13619.789333,79520.712692
92.156922,14359.995275,-16876.695478,77222.426198
92.159426,-10510.924376,-23982.672521,82738.313784
92.161930,-740.205942,3849.070898,78141.740796
92.164434,11991.336260,-25907.207970,75996.673402
92.166938,-8142.265362,-7698.141797,81818.999186
92.169442,8586.388927,16728.654289,82278.656485
92.171946,5181.441594,-21169.889941,77988.521696
92.174450,-592.164754,-6809.894666,77835.302597
92.176954,7994.224174,-19689.478057,79061.055394
92.179458,-888.247130,-20429.683999,79061.055394
92.181962,9178.553681,-6365.771101,77528.864398
92.184466,17320.819043,-25315.043216,77682.083497
92.186970,-7402.059420,-9770.718434,80286.808190
92.189474,10658.965565,27535.661042,81206.122788
92.191978,11991.336260,-37898.544230,74004.825107
92.194481,-9178.553681,11695.253884,82125.437386
92.196985,9030.512492,19837.519246,80593.246390
92.199489,16432.571912,-2812.782580,76609.549800
92.201993,-8586.388927,5773.606348,78294.959896
92.204497,18061.024985,28423.908173,78141.740796
92.207001,-7550.100608,22206.178260,84576.942979
92.209505,-10510.924376,-9474.636058,79214.274493
92.212009,17616.901420,-4441.235652,75996.673402
92.214513,2072.576638,7994.224174,79827.150892
92.217017,-2072.576638,-4293.194464,81818.999186
92.219521,-888.247130,21317.931130,77069.207099
92.222025,1036.288319,5181.441594,77835.302597
92.224529,10658.965565,14952.160028,82738.313784
92.227033,1480.411884,27979.784608,81206.122788
92.229537,3256.906145,-9770.718434,76609.549800
92.232041,4441.235652,2516.700203,76303.111601
92.234545,1924.535449,31828.855506,80746.465489
92.237049,-444.123565,2368.659014,82891.532884
92.239553,25611.125593,-38046.585419,79367.493593
92.242057,5181.441594,34197.514520,75537.016103
92.244572,-10214.842000,-18061.024985,82738.313784
92.247086,7254.018232,3849.070898,80286.808190
92.249601,13175.665768,-15248.242405,75537.016103
92.252115,-9474.636058,-28719.990550,82738.313784
92.254629,14952.160028,5033.400406,76762.768900
92.257144,1776.494261,-30200.402434,76609.549800
92.259658,-1036.288319,-22798.343014,78141.740796
92.262173,11251.130318,20725.766376,81512.560987
92.264687,-7105.977043,-38342.667796,79827.150892
92.267202,10362.883188,5625.565159,76303.111601
92.269716,7846.182985,-21614.013506,77222.426198
92.272230,888.247130,-35974.008781,80746.465489
92.274745,13619.789333,9474.636058,77988.521696
92.277259,22058.137072,-16136.489536,76303.111601
92.279774,-6513.812290,-18801.230927,79827.150892
92.282288,14211.954086,31976.896694,81818.999186
92.284803,-9622.677246,-27831.743419,74617.701505
92.287317,-2960.823768,-6365.771101,80593.246390
92.289831,22502.260637,26203.290347,80899.684589
92.292346,-4145.153275,296.082377,78754.617194
92.294860,-2368.659014,2516.700203,77835.302597
92.297375,18209.066173,28127.825796,77375.645298
92.299889,-13619.789333,10955.047942,85189.819378
92.302404,2368.659014,-592.164754,79520.712692
92.304918,14211.954086,-9178.553681,74770.920605
92.307433,-4589.276840,18061.024985,81972.218286
92.309947,-2368.659014,-8586.388927,83504.409282
92.312461,16580.613101,4441.235652,75077.358804
92.314976,-2368.659014,12287.418637,76762.768900
92.317490,888.247130,14063.912898,84730.162079
92.320005,11695.253884,22354.219448,80286.808190
92.322519,-2960.823768,-5329.482782,75690.235202
92.325034,5773.606348,-740.205942,76303.111601
92.327548,11695.253884,34789.679274,81359.341888
92.330062,-6809.894666,3997.112087,83657.628382
92.332577,22946.384202,-27239.578666,79520.712692
92.335091,16136.489536,-18949.272115,77682.083497
92.337606,1184.329507,2368.659014,81206.122788
92.340120,6661.853478,11399.171507,78907.836294
92.342635,18357.107362,-24278.754898,76149.892501
92.345125,-12287.418637,-16580.613101,83964.066581
92.347616,14063.912898,1332.370696,76915.987999
92.350107,1924.535449,-33901.432144,74924.139704
92.352598,-5477.523971,-11547.212695,78907.836294
92.355089,12731.542202,14656.077652,82278.656485
92.357580,-1332.370696,-27979.784608,80286.808190
92.360071,7550.100608,-5773.606348,76149.892501
92.362562,9918.759623,-17468.860231,79520.712692
92.365053,-296.082377,-14656.077652,79827.150892
92.367544,-3108.864956,-15840.407159,75996.673402
92.370035,22798.343014,-18505.148550,77682.083497
92.372526,-1480.411884,-8142.265362,80593.246390
92.375016,9030.512492,29904.320057,81972.218286
92.377507,12435.459826,-51814.415940,72012.976812
92.379998,-8734.430116,18209.066173,80593.246390
92.382489,4589.276840,22206.178260,81818.999186
92.384980,18209.066173,-7105.977043,76303.111601
92.387471,-2072.576638,10510.924376,77528.864398
92.389962,14508.036463,23094.425390,78907.836294
92.392453,12435.459826,24278.754898,82278.656485
92.394944,-13619.789333,-3108.864956,76762.768900
92.397435,6365.771101,-9474.636058,77835.302597
92.399926,6513.812290,26795.455100,82431.875585
92.402417,296.082377,-10214.842000,80746.465489
92.404907,5773.606348,4441.235652,76456.330700
92.407398,2516.700203,34641.638086,79520.712692
92.409889,-3108.864956,-4737.318029,82585.094684
92.412380,10955.047942,32124.937883,79367.493593
92.414871,444.123565,-15396.283594,74617.701505
92.417362,-7994.224174,-11843.295072,78601.398095
92.419853,21317.931130,40859.367998,81512.560987
92.422344,29904.320057,-55367.404462,75996.673402
92.424835,-13471.748144,15396.283594,77375.645298
92.427326,-8142.265362,-24870.919651,80899.684589
92.429817,18209.066173,-39675.038491,77528.864398
92.432308,-21169.889941,9474.636058,77069.207099
92.434798,24278.754898,-20281.642811,79673.931792
92.437289,1628.453072,-11103.089130,80440.027290
92.439780,1184.329507,-2368.659014,78907.836294
92.442271,11695.253884,-21910.095883,75690.235202
92.444776,-7994.224174,-17764.942608,81359.341888
92.447281,5773.606348,-4441.235652,81359.341888
92.449785,16728.654289,-3256.906145,76915.987999
92.452290,-1628.453072,-24426.796086,77682.083497
92.454795,3256.906145,-21762.054695,79673.931792
92.457299,10214.842000,3552.988522,78448.178995
92.459804,-740.205942,-26055.249158,76762.768900
92.462309,5033.400406,-10807.006753,81665.780087
92.464813,10658.965565,23686.590144,79980.369991
92.467318,-26203.290347,-8290.306550,79827.150892
92.469823,15840.407159,-23982.672521,77069.207099
92.472327,27239.578666,29756.278868,79827.150892
92.474832,-33605.349767,17320.819043,83044.751983
92.477337,7105.977043,-3701.029710,79367.493593
92.479841,17616.901420,31680.814318,77375.645298
92.482346,-11103.089130,10807.006753,84423.723880
92.484851,8586.388927,3997.112087,79520.712692
92.487355,9326.594869,-4885.359217,74770.920605
92.489860,-5625.565159,-444.123565,79673.931792
92.492365,7846.182985,-1184.329507,81818.999186
92.494869,5181.441594,17024.736666,79214.274493
92.497374,-5033.400406,17764.942608,77988.521696
92.499879,6513.812290,4885.359217,82585.094684
92.502383,7846.182985,28719.990550,80440.027290
92.504888,-2960.823768,-3552.988522,76303.111601
92.507393,-3256.906145,-8438.347739,77988.521696
92.509898,23094.425390,37158.338288,81512.560987
92.512402,-2368.659014,-28423.908173,79827.150892
92.514907,-12731.542202,2960.823768,79673.931792
92.517412,17172.777854,-29312.155303,77375.645298
92.519916,5329.482782,1184.329507,79827.150892
92.522421,444.123565,7550.100608,79520.712692
92.524926,22354.219448,-23834.631332,75843.454302
92.527430,-8586.388927,-19541.436869,81818.999186
92.529935,13175.665768,888.247130,77375.645298
92.532440,1480.411884,-29460.196492,77069.207099
92.534944,-3108.864956,-19541.436869,79367.493593
92.537449,7846.182985,296.082377,80593.246390
92.539954,9030.512492,-6809.894666,78907.836294
92.542458,1776.494261,-19541.436869,77835.302597
92.544968,10214.842000,-14211.954086,79061.055394
92.547484,1036.288319,-3552.988522,79520.712692
92.550000,-5033.400406,-15248.242405,78294.959896
92.552516,6809.894666,-15840.407159,80593.246390
92.555032,3701.029710,7105.977043,79520.712692
92.557548,-17320.819043,7846.182985,80899.684589
92.560064,21169.889941,-40859.367998,75383.797003
92.562580,19689.478057,34345.555709,79061.055394
92.565096,-24574.837274,14359.995275,80593.246390
92.567612,-444.123565,-5033.400406,79367.493593
92.570128,16580.613101,27979.784608,77528.864398
92.572644,-10214.842000,6513.812290,83964.066581
92.575160,16580.613101,10955.047942,78601.398095
92.577676,1480.411884,-8882.471304,75230.577904
92.580192,-3849.070898,-1924.535449,78601.398095
92.582708,11991.336260,10510.924376,81665.780087
92.585224,6661.853478,2664.741391,80593.246390
92.587740,-5181.441594,31088.649564,78754.617194
92.590256,2072.576638,2960.823768,80746.465489
92.592772,8438.347739,20281.642811,80286.808190
92.595288,-1184.329507,-4737.318029,75690.235202
92.597804,-3108.864956,-5181.441594,77375.645298
92.600320,18949.272115,29164.114115,81818.999186
92.602837,-444.123565,-24278.754898,80286.808190
92.605353,-11695.253884,-9622.677246,79061.055394
92.607869,16136.489536,-16284.530724,76915.987999
92.610385,3552.988522,-6365.771101,79980.369991
92.612901,1776.494261,8586.388927,80133.589091
92.615417,21169.889941,-22946.384202,76456.330700
92.617933,-7105.977043,-15248.242405,81818.999186
92.620449,14952.160028,0.000000,77069.207099
92.622965,1332.370696,-28127.825796,77222.426198
92.625481,-2812.782580,-9326.594869,80286.808190
92.627997,3256.906145,-5921.647536,80746.465489
92.630513,7105.977043,-11843.295072,79214.274493
92.633029,0.000000,-14359.995275,78907.836294
92.635545,11843.295072,-19837.519246,77988.521696
92.638061,1924.535449,-7846.182985,79827.150892
92.640577,4737.318029,-7698.141797,77375.645298
92.643093,2072.576638,-21317.931130,80746.465489
92.645587,7550.100608,21169.889941,80746.465489
92.648080,-22058.137072,-6957.935855,80286.808190
92.650574,9918.759623,-32124.937883,77528.864398
92.653068,26203.290347,24574.837274,80440.027290
92.655561,-8734.430116,-592.164754,78141.740796
92.658055,-7994.224174,592.164754,80440.027290
92.660549,20873.807564,33753.390955,77988.521696
92.663042,-7846.182985,3997.112087,84576.942979
92.665536,5181.441594,13323.706956,78601.398095
92.668030,3404.947333,-13619.789333,74924.139704
92.670523,2960.823768,7254.018232,79061.055394
92.673017,9474.636058,10510.924376,82738.313784
92.675511,4441.235652,1184.329507,80286.808190
92.678004,5625.565159,38490.708984,78754.617194
92.680498,1628.453072,17468.860231,80286.808190
92.682992,-1776.494261,10955.047942,79827.150892
92.685485,7550.100608,-14508.036463,75843.454302
92.687979,-7402.059420,5181.441594,78141.740796
92.690473,1036.288319,9474.636058,82891.532884
92.692966,26943.496289,-40415.244433,78141.740796
92.695460,-15544.324782,15248.242405,77375.645298
92.697954,-6217.729913,-31236.690752,79980.369991
92.700447,17912.983796,-32124.937883,77222.426198
92.702941,-27091.537477,8734.430116,78907.836294
92.705435,24574.837274,-21169.889941,78601.398095
92.707928,4589.276840,-19245.354492,78754.617194
92.710422,-5033.400406,-11695.253884,79367.493593
92.712916,13027.624579,-22798.343014,75537.016103
92.715409,5773.606348,5625.565159,79367.493593
92.717903,592.164754,-23390.507767,80593.246390
92.720397,11695.253884,-6809.894666,77375.645298
92.722890,-1184.329507,-27683.702231,77069.207099
92.725384,5181.441594,-15100.201217,78294.959896
92.727878,-5773.606348,-17024.736666,77835.302597
92.730371,14804.118840,-29904.320057,78294.959896
92.732865,14359.995275,3701.029710,79520.712692
92.735359,3108.864956,23538.548956,80746.465489
92.737852,9918.759623,-38342.667796,74464.482406
92.740346,12139.377449,38194.626607,79214.274493
92.742840,-19837.519246,8734.430116,81972.218286
92.745348,21614.013506,-9770.718434,77222.426198
92.747856,-3849.070898,20725.766376,77069.207099
92.750364,9474.636058,12583.501014,80899.684589
92.752872,12583.501014,18061.024985,81512.560987
