#time,accel_x,accel_y,accel_z
4936.275856,4293.194464,1036.288319,-79214.274493
4936.278403,2220.617826,3701.029710,-76609.549800
4936.280949,2368.659014,5033.400406,-76609.549800
4936.283496,2664.741391,2368.659014,-79214.274493
4936.286042,1924.535449,-2812.782580,-80899.684589
4936.288589,3552.988522,0.000000,-79367.493593
4936.291135,3256.906145,3849.070898,-77988.521696
4936.293682,2368.659014,3997.112087,-76915.987999
4936.296228,2072.576638,2812.782580,-77835.302597
4936.298775,1628.453072,888.247130,-79061.055394
4936.301321,3849.070898,0.000000,-80593.246390
4936.303868,4737.318029,-1184.329507,-79061.055394
4936.306414,2072.576638,2664.741391,-77682.083497
4936.308961,2516.700203,-148.041188,-76762.768900
4936.311508,40267.203245,10658.965565,-76456.330700
4936.314054,1036.288319,-7846.182985,-74311.263306
4936.316601,-61733.175563,-10066.800811,-87947.763170
4936.319147,55219.363273,14359.995275,-81359.341888
4936.321694,-10955.047942,-9770.718434,-73545.167808
4936.324240,-32124.937883,14656.077652,-79214.274493
4936.326787,48853.592172,-5625.565159,-75230.577904
4936.329333,-29312.155303,-16580.613101,-82891.532884
4936.331880,-14063.912898,23538.548956,-84576.942979
4936.334426,36566.173535,-7550.100608,-76609.549800
4936.336973,-32569.061448,11843.295072,-76303.111601
4936.339519,11103.089130,29164.114115,-81052.903688
4936.342066,34345.555709,0.000000,-76609.549800
4936.344612,9474.636058,2220.617826,-76609.549800
4936.347159,-8142.265362,-27535.661042,-82891.532884
4936.349706,17764.942608,13027.624579,-76762.768900
4936.352252,10510.924376,3997.112087,-72472.634111
4936.354799,-22946.384202,-13323.706956,-85036.600278
4936.357195,3849.070898,24426.796086,-78141.740796
4936.359592,15100.201217,18801.230927,-75383.797003
4936.361988,5033.400406,-36270.091158,-76456.330700
4936.364385,4293.194464,26647.413912,-78754.617194
4936.366781,-74464.717765,17468.860231,-83964.066581
4936.369178,-59808.640114,-592.164754,-86568.791274
4936.371574,53886.992578,-28719.990550,-78754.617194
4936.373971,26351.331535,11251.130318,-71246.881314
4936.376367,-29608.237680,13619.789333,-84117.285680
4936.378764,9326.594869,-17616.901420,-81818.999186
4936.381161,46632.974346,22206.178260,-67263.184724
4936.383557,-59956.681302,29460.196492,-78141.740796
4936.385954,-21169.889941,-38046.585419,-88713.858668
4936.388350,62029.257940,18949.272115,-76149.892501
4936.390747,-21762.054695,-14359.995275,-76149.892501
4936.393143,-888.247130,-888.247130,-81359.341888
4936.395540,34049.473332,37602.461854,-78907.836294
4936.397936,4737.318029,12435.459826,-70021.128517
4936.400333,-22798.343014,-24130.713709,-82125.437386
4936.402729,47225.139100,2516.700203,-79980.369991
4936.405126,8882.471304,-444.123565,-81512.560987
4936.407522,-9474.636058,7846.182985,-77375.645298
4936.409919,30348.443622,-3849.070898,-71859.757712
4936.412316,-9622.677246,20429.683999,-76149.892501
4936.414712,-5773.606348,-26351.331535,-83657.628382
4936.417109,7402.059420,-8438.347739,-81818.999186
4936.419505,-13915.871710,23982.672521,-81359.341888
4936.421902,2220.617826,-6809.894666,-76609.549800
4936.424298,16728.654289,-51518.333563,-76149.892501
4936.426695,-3997.112087,53146.786636,-78294.959896
4936.429091,-3256.906145,-12287.418637,-83197.971083
4936.431488,28571.949361,-6365.771101,-75690.235202
4936.433884,-5477.523971,27091.537477,-77528.864398
4936.436281,-28127.825796,-740.205942,-78601.398095
4936.438678,30348.443622,-9918.759623,-75843.454302
4936.441074,-12583.501014,-10214.842000,-81818.999186
4936.443471,-26351.331535,6957.935855,-83964.066581
4936.445867,4737.318029,3849.070898,-78601.398095
4936.448264,9178.553681,29164.114115,-71093.662214
4936.450660,5181.441594,592.164754,-83504.409282
4936.453107,-23094.425390,-21910.095883,-75537.016103
4936.455554,2368.659014,3256.906145,-76303.111601
4936.458001,-52850.704259,55663.486838,-83657.628382
4936.460448,-81422.653620,-20725.766376,-86415.572174
4936.462896,78461.829852,21465.972318,-76149.892501
4936.465343,8438.347739,-39378.956114,-74924.139704
4936.467790,-69875.440925,-32421.020260,-85802.695776
4936.470237,10510.924376,30052.361245,-79827.150892
4936.472684,40859.367998,81718.735997,-68182.499322
4936.475131,-43228.027013,-68987.193794,-81972.218286
4936.477578,12435.459826,-28423.908173,-86875.229473
4936.480025,22650.301825,21169.889941,-79520.712692
4936.482472,-60844.928432,-17764.942608,-77988.521696
4936.484919,6217.729913,36122.049970,-81052.903688
4936.487366,27387.619854,14804.118840,-70787.224015
4936.489813,-33753.390955,-58328.228230,-88867.077768
4936.492260,4885.359217,31976.896694,-83044.751983
4936.494707,7994.224174,296.082377,-74004.825107
4936.497154,-26351.331535,-16580.613101,-80286.808190
4936.499601,18949.272115,48557.509795,-73238.729609
4936.502048,6069.688724,-31384.731941,-78141.740796
4936.504496,-19245.354492,296.082377,-83044.751983
4936.506943,23686.590144,18061.024985,-80286.808190
4936.509390,45300.603650,-28423.908173,-77835.302597
4936.511837,-13027.624579,-4589.276840,-74617.701505
4936.514284,-17468.860231,-13915.871710,-79214.274493
4936.516731,11695.253884,29608.237680,-75843.454302
4936.519178,-2516.700203,19097.313304,-80133.589091
4936.521625,-6365.771101,-38638.750172,-84270.504780
4936.524072,15544.324782,40119.162056,-75996.673402
4936.526519,23834.631332,-8290.306550,-72472.634111
4936.528966,3256.906145,-13027.624579,-78754.617194
4936.531413,2220.617826,27387.619854,-81052.903688
4936.533860,22650.301825,-740.205942,-75996.673402
4936.536307,-1036.288319,-47965.345042,-81052.903688
4936.538754,-3108.864956,23094.425390,-81052.903688
4936.541201,5329.482782,-5181.441594,-78907.836294
4936.543648,4145.153275,1628.453072,-67263.184724
4936.546096,11103.089130,48261.427418,-77375.645298
4936.548543,444.123565,-42487.821071,-86722.010374
4936.551028,51370.292375,-12435.459826,-79367.493593
4936.553511,70467.605678,18209.066173,-68182.499322
4936.555994,-83643.271446,-14656.077652,-81359.341888
4936.558477,-20133.601622,29164.114115,-87947.763170
4936.560961,109994.602981,-3701.029710,-68182.499322
4936.563444,-27535.661042,-35974.008781,-76915.987999
4936.565927,-54035.033766,15840.407159,-85955.914876
4936.568410,-18653.189738,3997.112087,-83351.190182
4936.570893,84827.600953,-14359.995275,-65271.336430
4936.573376,-33309.267390,29312.155303,-75230.577904
4936.575860,-51370.292375,4441.235652,-88407.420469
4936.578343,58180.187041,-5329.482782,-76915.987999
4936.580826,-10807.006753,11251.130318,-74770.920605
4936.583309,-44560.397708,-5033.400406,-83197.971083
4936.585792,42191.738694,-19689.478057,-76303.111601
4936.588275,12583.501014,24130.713709,-75537.016103
4936.590758,-12435.459826,21021.848753,-81206.122788
4936.593242,19097.313304,-12139.377449,-77375.645298
4936.595725,40119.162056,2960.823768,-73851.606007
4936.598208,-5921.647536,21317.931130,-77682.083497
4936.600691,-4145.153275,-50778.127621,-80746.465489
4936.603174,1924.535449,57588.022288,-79520.712692
4936.605657,10362.883188,4885.359217,-78907.836294
4936.608141,1036.288319,-31088.649564,-75996.673402
4936.610624,-14952.160028,22502.260637,-78448.178995
4936.613107,-148.041188,-14063.912898,-79827.150892
4936.615590,27535.661042,-2812.782580,-79214.274493
4936.618073,-7105.977043,12139.377449,-80899.684589
4936.620556,-1776.494261,-6365.771101,-74770.920605
4936.623040,18949.272115,5329.482782,-77375.645298
4936.625523,5921.647536,-47077.097911,-81359.341888
4936.628006,-28719.990550,41599.573940,-84423.723880
4936.630489,14508.036463,3701.029710,-75843.454302
4936.632972,8142.265362,-11843.295072,-72166.195912
4936.635455,-17912.983796,1036.288319,-79061.055394
4936.637938,16876.695478,5625.565159,-83197.971083
4936.640422,9474.636058,17468.860231,-79367.493593
4936.642905,-17912.983796,-26055.249158,-80286.808190
4936.645388,27979.784608,296.082377,-74004.825107
4936.647871,84975.642142,-9326.594869,-70787.224015
4936.650378,50037.921679,-6217.729913,-69561.471218
4936.652885,-72540.182316,0.000000,-84270.504780
4936.655392,-50037.921679,35677.926404,-90246.049664
4936.657899,53294.827824,-1924.535449,-72779.072310
4936.660406,33753.390955,-34493.596897,-69101.813920
4936.662913,-44264.315332,23538.548956,-80593.246390
4936.665420,-54479.157331,22354.219448,-89633.173266
4936.667927,44708.438897,-10510.924376,-81665.780087
4936.670434,26647.413912,-14063.912898,-73238.729609
4936.672941,-37306.379477,12583.501014,-74464.482406
4936.675448,16136.489536,-16580.613101,-84730.162079
4936.677955,3701.029710,10362.883188,-76303.111601
4936.680462,-25463.084405,16136.489536,-80133.589091
4936.682969,-21021.848753,-7550.100608,-83044.751983
4936.685476,28127.825796,29016.072926,-74004.825107
4936.687983,-2812.782580,-30052.361245,-76762.768900
4936.690490,-14952.160028,5773.606348,-79980.369991
4936.692997,18949.272115,16580.613101,-78141.740796
4936.695504,13175.665768,-296.082377,-78601.398095
4936.698011,-9918.759623,-19541.436869,-81665.780087
4936.700518,6957.935855,-8290.306550,-77682.083497
4936.703025,-5329.482782,23834.631332,-75843.454302
4936.705532,-3256.906145,10658.965565,-78907.836294
4936.708039,3849.070898,-30496.484810,-77682.083497
4936.710547,2220.617826,32421.020260,-77069.207099
4936.713054,18357.107362,-12583.501014,-80286.808190
4936.715561,17912.983796,-10362.883188,-79827.150892
4936.718068,4145.153275,9178.553681,-79367.493593
4936.720575,15248.242405,5477.523971,-73698.386908
4936.723082,-592.164754,2072.576638,-76149.892501
4936.725589,592.164754,-6957.935855,-81512.560987
4936.728096,-3404.947333,2960.823768,-81206.122788
4936.730603,11843.295072,29756.278868,-73085.510509
4936.733110,5625.565159,-23686.590144,-79367.493593
4936.735617,9474.636058,-888.247130,-82278.656485
4936.738124,-6365.771101,3849.070898,-82585.094684
4936.740631,59956.681302,-4589.276840,-73545.167808
4936.743138,-13027.624579,3404.947333,-75843.454302
4936.745645,-64693.999331,16580.613101,-87028.448573
4936.748152,71207.811620,-888.247130,-77222.426198
4936.750674,26499.372724,-11251.130318,-68335.718422
4936.753197,-96522.854837,24574.837274,-87028.448573
4936.755720,59068.434172,19097.313304,-80746.465489
4936.758242,12139.377449,-35233.802839,-73085.510509
4936.760765,-92525.742750,25315.043216,-89020.296868
4936.763288,67506.781910,16432.571912,-77375.645298
4936.765810,61289.051998,-6217.729913,-68335.718422
4936.768333,-30496.484810,-28275.866984,-79214.274493
4936.770856,-27535.661042,14359.995275,-85343.038477
4936.773378,60992.969621,-8882.471304,-78448.178995
4936.775901,10362.883188,-13175.665768,-80286.808190
4936.778423,-8734.430116,16876.695478,-79214.274493
4936.780946,31532.773129,7402.059420,-71246.881314
4936.783469,-5033.400406,27683.702231,-75383.797003
4936.785991,-8734.430116,-53294.827824,-85343.038477
4936.788514,-1184.329507,23834.631332,-82738.313784
4936.791037,6365.771101,23390.507767,-78754.617194
4936.793559,6217.729913,-16284.530724,-74158.044206
4936.796082,888.247130,-20873.807564,-75077.358804
4936.798605,-4885.359217,50926.168810,-81206.122788
4936.801127,21021.848753,-27831.743419,-82278.656485
4936.803650,19245.354492,-7698.141797,-78754.617194
4936.806173,-11547.212695,20577.725188,-76303.111601
4936.808695,148.041188,5921.647536,-75537.016103
4936.811218,22058.137072,-44116.274143,-77069.207099
4936.813741,-23538.548956,44264.315332,-84576.942979
4936.816263,1628.453072,-3552.988522,-81972.218286
4936.818786,11843.295072,-19097.313304,-71093.662214
4936.821308,-19393.395680,15692.365970,-82738.313784
4936.823831,15692.365970,2812.782580,-80286.808190
4936.826354,27535.661042,13175.665768,-74770.920605
4936.828876,44856.480085,-32421.020260,-78754.617194
4936.831399,19689.478057,9918.759623,-77222.426198
4936.833922,-99039.555040,21465.972318,-87334.886772
4936.836444,39971.120868,4737.318029,-81206.122788
4936.838967,113547.591503,-15248.242405,-64658.460031
4936.841490,-39526.997303,-16284.530724,-76915.987999
4936.844012,-61585.134374,23686.590144,-87641.324971
4936.846535,88232.548286,11547.212695,-74158.044206
4936.849058,-58032.145853,-34049.473332,-79520.712692
4936.851500,-51074.209998,25018.960840,-86415.572174
4936.853943,32717.102636,64990.081708,-79214.274493
4936.856386,20429.683999,-55515.445650,-75077.358804
4936.858829,-62029.257940,6661.853478,-79827.150892
4936.861272,37750.503042,32717.102636,-78294.959896
4936.863715,-1036.288319,-27683.702231,-76303.111601
4936.866158,-28571.949361,-3849.070898,-85496.257577
4936.868601,10955.047942,30940.608376,-75996.673402
4936.871044,-7994.224174,1332.370696,-70480.785816
4936.873487,-2220.617826,-2812.782580,-81972.218286
4936.875930,7846.182985,17468.860231,-83044.751983
4936.878373,16136.489536,-31088.649564,-79980.369991
4936.880816,4441.235652,25167.002028,-75230.577904
4936.883259,-7254.018232,7698.141797,-76762.768900
4936.885702,-5773.606348,2812.782580,-80746.465489
4936.888145,12731.542202,10214.842000,-78601.398095
4936.890587,7402.059420,-6513.812290,-78141.740796
4936.893030,-13027.624579,-17172.777854,-81512.560987
4936.895473,21614.013506,16580.613101,-78448.178995
4936.897916,35529.885216,0.000000,-71706.538613
4936.900359,-11103.089130,17172.777854,-79214.274493
4936.902802,11103.089130,10214.842000,-80286.808190
4936.905245,11103.089130,-42191.738694,-80899.684589
4936.907688,-10362.883188,2220.617826,-84270.504780
4936.910131,-8142.265362,5921.647536,-81206.122788
4936.912574,2072.576638,28719.990550,-77528.864398
4936.915017,-1776.494261,11991.336260,-78141.740796
4936.917460,35529.885216,-26795.455100,-78448.178995
4936.919903,94450.278199,-3849.070898,-74158.044206
4936.922346,-43820.191766,-31088.649564,-79367.493593
4936.924789,296.082377,44412.356520,-79673.931792
4936.927232,49149.674549,18949.272115,-69255.033019
4936.929674,-21317.931130,-47965.345042,-83197.971083
4936.932117,56255.651592,26943.496289,-79673.931792
4936.934560,19245.354492,-14508.036463,-71093.662214
4936.937003,26499.372724,-41007.409187,-72166.195912
4936.939446,41155.450375,15840.407159,-75996.673402
4936.941889,-10214.842000,5773.606348,-79367.493593
4936.944332,3552.988522,5921.647536,-79980.369991
4936.946775,47521.221476,2960.823768,-73545.167808
4936.949254,1776.494261,-15100.201217,-80440.027290
4936.951733,7402.059420,-2664.741391,-84117.285680
4936.954212,45448.644839,148.041188,-72779.072310
4936.956691,10066.800811,17616.901420,-74617.701505
4936.959170,10066.800811,24426.796086,-76915.987999
4936.961649,7698.141797,-36862.255912,-77375.645298
4936.964128,-6661.853478,33161.226202,-80286.808190
4936.966607,1480.411884,17468.860231,-81818.999186
4936.969086,6069.688724,-21465.972318,-75690.235202
4936.971565,-15100.201217,14359.995275,-75843.454302
4936.974043,-3552.988522,2960.823768,-78294.959896
4936.976522,21317.931130,-11695.253884,-79214.274493
4936.979001,-4589.276840,5625.565159,-84117.285680
4936.981480,-1036.288319,-1184.329507,-78294.959896
4936.983959,15248.242405,15248.242405,-71706.538613
4936.986438,-15840.407159,-5181.441594,-79367.493593
4936.988917,-9622.677246,23242.466579,-81972.218286
4936.991396,18209.066173,-14359.995275,-82431.875585
4936.993875,2812.782580,-10362.883188,-81359.341888
4936.996354,-13915.871710,15692.365970,-75690.235202
4936.998833,16580.613101,-2812.782580,-79214.274493
4937.001312,14211.954086,-29164.114115,-76609.549800
4937.003791,48557.509795,16876.695478,-77835.302597
4937.006270,35381.844028,2220.617826,-75230.577904
4937.008749,-113547.591503,-13175.665768,-88407.420469
4937.011228,30940.608376,34641.638086,-80746.465489
4937.013707,116064.291706,-11103.089130,-63585.926334
4937.016186,-41895.656317,-33753.390955,-77682.083497
4937.018665,-76389.253214,38342.667796,-91318.583362
4937.021143,67062.658345,3108.864956,-75843.454302
4937.023622,95042.442953,-28571.949361,-70174.347617
4937.026101,-10807.006753,3997.112087,-74158.044206
4937.028580,-29904.320057,15100.201217,-87334.886772
4937.031059,52258.539505,-18949.272115,-75383.797003
4937.033538,-24870.919651,18061.024985,-73391.948708
4937.036017,-23390.507767,1924.535449,-83504.409282
4937.038496,44856.480085,-28423.908173,-77222.426198
4937.040975,-37010.297100,6217.729913,-79673.931792
4937.043454,-11843.295072,31088.649564,-82125.437386
4937.045933,41007.409187,-9030.512492,-71706.538613
4937.048437,-19985.560434,15692.365970,-78141.740796
4937.050941,-7402.059420,-31088.649564,-83504.409282
4937.053445,21169.889941,36566.173535,-74311.263306
4937.055950,-4441.235652,-29164.114115,-77528.864398
4937.058454,-10510.924376,11547.212695,-82891.532884
4937.060958,9770.718434,23834.631332,-77069.207099
4937.063462,-1036.288319,-18949.272115,-76609.549800
4937.065966,-6217.729913,9770.718434,-79520.712692
4937.068470,27683.702231,8290.306550,-78294.959896
4937.070974,12435.459826,-10362.883188,-77375.645298
4937.073479,-2220.617826,19097.313304,-77988.521696
4937.075983,12139.377449,8290.306550,-77375.645298
4937.078487,888.247130,-14211.954086,-77988.521696
4937.080991,-740.205942,-6217.729913,-79214.274493
4937.083495,-18653.189738,44856.480085,-79214.274493
4937.085999,592.164754,21169.889941,-74158.044206
4937.088503,-16284.530724,-22502.260637,-80133.589091
4937.091007,-73132.347070,2960.823768,-89786.392366
4937.093512,46632.974346,9326.594869,-77835.302597
4937.096016,46781.015534,-15248.242405,-70480.785816
4937.098520,-31680.814318,-1184.329507,-79827.150892
4937.101024,20281.642811,20873.807564,-77222.426198
4937.103528,-14211.954086,-6513.812290,-76456.330700
4937.106032,-34345.555709,31532.773129,-88560.639569
4937.108536,-37602.461854,37454.420665,-82738.313784
4937.111041,-34345.555709,13471.748144,-77528.864398
4937.113545,2368.659014,-3701.029710,-77988.521696
4937.116049,16432.571912,10955.047942,-82738.313784
4937.118553,-8586.388927,2220.617826,-76149.892501
4937.121057,5625.565159,-296.082377,-76456.330700
4937.123561,22354.219448,2072.576638,-77069.207099
4937.126065,10807.006753,444.123565,-78294.959896
4937.128570,2368.659014,10510.924376,-77988.521696
4937.131074,26943.496289,12287.418637,-75230.577904
4937.133578,-10510.924376,-22798.343014,-79061.055394
4937.136082,-14063.912898,42931.944636,-81665.780087
4937.138586,14211.954086,10214.842000,-77222.426198
4937.141090,14211.954086,-7698.141797,-71859.757712
4937.143594,-25759.166782,8586.388927,-80593.246390
4937.146099,1924.535449,-10362.883188,-82585.094684
4937.148622,27979.784608,-9326.594869,-77375.645298
4937.151146,-14359.995275,4293.194464,-81052.903688
4937.153669,-1776.494261,5329.482782,-76915.987999
4937.156193,17320.819043,23094.425390,-74924.139704
4937.158716,-20429.683999,-7105.977043,-79367.493593
4937.161240,-2516.700203,2812.782580,-81665.780087
4937.163763,12879.583391,-6217.729913,-76609.549800
4937.166287,-20133.601622,-6217.729913,-77222.426198
4937.168810,-21762.054695,18505.148550,-79214.274493
4937.171334,-4145.153275,-9918.759623,-78754.617194
4937.173858,-21317.931130,25759.166782,-81052.903688
4937.176381,-61141.010809,7550.100608,-84270.504780
4937.178905,62473.381505,-26943.496289,-79214.274493
4937.181428,45892.768404,2516.700203,-70787.224015
4937.183952,-104369.037822,9770.718434,-84730.162079
4937.186475,-13619.789333,20725.766376,-86109.133975
4937.188999,73576.470635,-2516.700203,-69561.471218
4937.191522,17616.901420,-24722.878463,-76762.768900
4937.194046,-74612.758954,8734.430116,-87181.667672
4937.196569,-54183.074954,-296.082377,-83504.409282
4937.199093,31532.773129,15840.407159,-77528.864398
4937.201616,-6217.729913,3256.906145,-78141.740796
4937.204140,-26203.290347,-5477.523971,-79827.150892
4937.206664,21614.013506,8290.306550,-73851.606007
4937.209187,1332.370696,-19541.436869,-78294.959896
4937.211711,-29608.237680,10362.883188,-83197.971083
4937.214234,5033.400406,29164.114115,-75690.235202
4937.216758,5921.647536,-18505.148550,-79367.493593
4937.219281,-1332.370696,14211.954086,-81206.122788
4937.221805,26055.249158,-18505.148550,-77069.207099
4937.224328,-2516.700203,17912.983796,-74924.139704
4937.226852,-13915.871710,-9918.759623,-79827.150892
4937.229375,3108.864956,4441.235652,-81052.903688
4937.231899,6661.853478,19393.395680,-77528.864398
4937.234423,-592.164754,-14656.077652,-78754.617194
4937.236946,-6069.688724,-592.164754,-81052.903688
4937.239470,21317.931130,20577.725188,-77069.207099
4937.241993,22650.301825,-2368.659014,-75690.235202
4937.244517,-1924.535449,12435.459826,-78141.740796
4937.247040,7698.141797,17468.860231,-77682.083497
4937.249577,11547.212695,-19689.478057,-75383.797003
4937.252113,-5033.400406,-15692.365970,-82585.094684
4937.254649,2072.576638,46781.015534,-79061.055394
4937.257186,31236.690752,-16432.571912,-75690.235202
4937.259722,49741.839302,-19541.436869,-71706.538613
4937.262259,48113.386230,6365.771101,-76456.330700
4937.264795,-52998.745447,-15396.283594,-83657.628382
4937.267331,67654.823099,22354.219448,-77682.083497
4937.269868,39378.956114,-11547.212695,-67263.184724
4937.272404,-59364.516548,-33309.267390,-84423.723880
4937.274941,56107.610404,41007.409187,-79520.712692
4937.277477,27535.661042,-17764.942608,-72932.291410
4937.280013,5181.441594,-17616.901420,-78601.398095
4937.282550,-1776.494261,23094.425390,-76456.330700
4937.285086,2072.576638,-30200.402434,-77069.207099
4937.287623,-32569.061448,14508.036463,-85189.819378
4937.290159,39971.120868,34049.473332,-75537.016103
4937.292695,21021.848753,-13767.830521,-73391.948708
4937.295232,-8142.265362,6661.853478,-83044.751983
4937.297768,20281.642811,9474.636058,-77682.083497
4937.300305,16432.571912,-444.123565,-77835.302597
4937.302841,-5329.482782,-22798.343014,-79520.712692
4937.305377,-3108.864956,52554.621882,-79673.931792
4937.307914,18505.148550,-13619.789333,-75383.797003
4937.310450,-10066.800811,888.247130,-77375.645298
4937.312987,-20281.642811,15988.448347,-80133.589091
4937.315523,1924.535449,-3404.947333,-79520.712692
4937.318059,24870.919651,-13767.830521,-77528.864398
4937.320596,-14804.118840,7254.018232,-80899.684589
4937.323132,-296.082377,1628.453072,-77069.207099
4937.325669,16876.695478,21169.889941,-76149.892501
4937.328205,-19393.395680,-8142.265362,-80133.589091
4937.330741,740.205942,3108.864956,-79827.150892
4937.333278,14063.912898,-1924.535449,-72319.415011
4937.335814,-24130.713709,-4441.235652,-83044.751983
4937.338351,-3997.112087,1628.453072,-75537.016103
4937.340887,29756.278868,14063.912898,-75843.454302
4937.343423,34937.720462,592.164754,-78601.398095
4937.345960,66766.575968,-18653.189738,-70174.347617
4937.348496,-71948.017562,8438.347739,-82431.875585
4937.351043,-28571.949361,21317.931130,-86875.229473
4937.353590,105257.284952,-11695.253884,-69101.813920
4937.356137,2220.617826,-10214.842000,-72932.291410
4937.358684,-79053.994606,13767.830521,-89633.173266
4937.361231,65730.287650,-5773.606348,-79061.055394
4937.363778,55219.363273,-11695.253884,-67263.184724
4937.366325,-66322.452403,20873.807564,-79367.493593
4937.368872,28127.825796,9770.718434,-84117.285680
4937.371419,54775.239708,-10955.047942,-80286.808190
4937.373966,-37898.544230,-6661.853478,-77835.302597
4937.376513,-4737.318029,8290.306550,-81665.780087
4937.379060,19245.354492,740.205942,-75230.577904
4937.381607,-35677.926404,15544.324782,-77069.207099
4937.384154,11695.253884,4589.276840,-81512.560987
4937.386701,14211.954086,3997.112087,-79827.150892
4937.389248,-8438.347739,-14508.036463,-81359.341888
4937.391795,23390.507767,23982.672521,-74004.825107
4937.394342,2516.700203,-33753.390955,-74770.920605
4937.396889,-25611.125593,28719.990550,-82125.437386
4937.399436,13323.706956,18801.230927,-79367.493593
4937.401983,17172.777854,-23390.507767,-76762.768900
4937.404530,-15692.365970,-1184.329507,-81052.903688
4937.407076,20725.766376,26055.249158,-76609.549800
4937.409623,22946.384202,-7402.059420,-74158.044206
4937.412170,-3997.112087,13619.789333,-78448.178995
4937.414717,13471.748144,23686.590144,-76762.768900
4937.417264,5625.565159,-22206.178260,-80133.589091
4937.419811,-3997.112087,-29016.072926,-82891.532884
4937.422358,3256.906145,-7402.059420,-77988.521696
4937.424905,-24574.837274,9030.512492,-76456.330700
4937.427452,-57588.022288,36862.255912,-84576.942979
4937.429999,67654.823099,6365.771101,-86109.133975
4937.432546,121985.939242,-7550.100608,-69408.252119
4937.435093,-54035.033766,-22354.219448,-77988.521696
4937.437640,-114583.879822,39526.997303,-92237.897959
4937.440187,53886.992578,14508.036463,-76609.549800
4937.442734,91637.495620,-19097.313304,-65424.555529
4937.445281,-83791.312634,-13767.830521,-88100.982270
4937.447828,-8734.430116,13915.871710,-89939.611465
4937.450375,94894.401764,-18801.230927,-68335.718422
4937.452928,-24278.754898,-22946.384202,-72779.072310
4937.455481,-36122.049970,39378.956114,-84576.942979
4937.458035,62621.422693,-7994.224174,-76915.987999
4937.460588,52702.663070,-7254.018232,-73238.729609
4937.463141,-23094.425390,13619.789333,-79980.369991
4937.465694,6069.688724,15544.324782,-82278.656485
4937.468248,29756.278868,-41895.656317,-76456.330700
4937.470801,-18949.272115,46188.850781,-78294.959896
4937.473354,12583.501014,-9474.636058,-77988.521696
4937.475907,-5033.400406,7846.182985,-78141.740796
4937.478460,-17320.819043,18209.066173,-79673.931792
4937.481014,10807.006753,-56255.651592,-78601.398095
4937.483567,-13027.624579,32421.020260,-79520.712692
4937.486120,-10066.800811,-592.164754,-83657.628382
4937.488673,27091.537477,-1776.494261,-74004.825107
4937.491227,20429.683999,21169.889941,-75537.016103
4937.493780,-22502.260637,10510.924376,-80899.684589
4937.496333,8438.347739,-24722.878463,-81818.999186
4937.498886,7698.141797,-4885.359217,-78907.836294
4937.501440,-24722.878463,2220.617826,-80440.027290
4937.503993,-6365.771101,4145.153275,-76915.987999
4937.506546,-22502.260637,30496.484810,-80746.465489
4937.509099,-33605.349767,-1924.535449,-82585.094684
4937.511652,44412.356520,-19837.519246,-78294.959896
4937.514206,35825.967593,-3997.112087,-74158.044206
4937.516759,-69579.358548,11843.295072,-82891.532884
4937.519312,-61585.134374,14656.077652,-85036.600278
4937.521865,24278.754898,1776.494261,-81052.903688
4937.524419,7254.018232,10510.924376,-77375.645298
4937.526972,-50926.168810,-14656.077652,-85496.257577
4937.529525,71948.017562,-19245.354492,-74311.263306
4937.532078,-8586.388927,17024.736666,-72472.634111
4937.534631,-28719.990550,21762.054695,-79827.150892
4937.537185,39378.956114,-10362.883188,-78907.836294
4937.539738,-7105.977043,-26499.372724,-80899.684589
4937.542291,-49149.674549,19097.313304,-82431.875585
4937.544844,37750.503042,15988.448347,-73851.606007
4937.547398,-8734.430116,1184.329507,-75230.577904
4937.549951,-26647.413912,4885.359217,-78601.398095
4937.552504,19689.478057,-17912.983796,-82738.313784
4937.555063,15692.365970,17912.983796,-75077.358804
4937.557620,-18653.189738,-37750.503042,-81512.560987
4937.560177,3552.988522,24426.796086,-77222.426198
4937.562734,6957.935855,25167.002028,-75996.673402
4937.565290,-12731.542202,-30200.402434,-81359.341888
4937.567847,13915.871710,37158.338288,-78907.836294
4937.570404,23834.631332,-26943.496289,-75690.235202
4937.572960,-7550.100608,-6957.935855,-80133.589091
4937.575517,23538.548956,12879.583391,-77375.645298
4937.578074,17320.819043,9326.594869,-79520.712692
4937.580630,5921.647536,-5181.441594,-76149.892501
4937.583187,-5921.647536,-18653.189738,-80133.589091
4937.585744,1332.370696,10066.800811,-79367.493593
4937.588300,20577.725188,66026.370026,-73851.606007
4937.590857,37454.420665,-3108.864956,-71706.538613
4937.593414,-82606.983127,-48261.427418,-87028.448573
4937.595970,1480.411884,20429.683999,-86415.572174
4937.598527,131608.616488,10362.883188,-64352.021832
4937.601084,-43228.027013,-45448.644839,-75690.235202
4937.603640,-74020.594200,35085.761651,-90705.706963
4937.606197,10955.047942,91045.330866,-82278.656485
4937.608754,-5329.482782,18357.107362,-74158.044206
4937.611310,-21762.054695,-124206.557068,-87641.324971
4937.613867,-4885.359217,-14063.912898,-82585.094684
4937.616424,5033.400406,59068.434172,-75843.454302
4937.618980,17912.983796,1036.288319,-80746.465489
4937.621537,46632.974346,6365.771101,-75077.358804
4937.624094,-5033.400406,24278.754898,-75996.673402
4937.626650,-7105.977043,-16876.695478,-78141.740796
4937.629207,18505.148550,15100.201217,-77222.426198
4937.631764,14656.077652,-39823.079680,-80899.684589
4937.634320,-11991.336260,-10214.842000,-82125.437386
4937.636877,-10362.883188,19245.354492,-81052.903688
4937.639434,-2072.576638,22502.260637,-74617.701505
4937.641990,-8438.347739,-44116.274143,-74924.139704
4937.644547,-15396.283594,59956.681302,-81972.218286
4937.647104,6661.853478,-25463.084405,-84270.504780
4937.649660,19541.436869,-20429.683999,-77988.521696
4937.652217,296.082377,30052.361245,-73391.948708
4937.654774,2220.617826,12879.583391,-75690.235202
4937.657334,11547.212695,-28571.949361,-78601.398095
4937.659893,-15544.324782,27239.578666,-87334.886772
4937.662453,2812.782580,-2368.659014,-78907.836294
4937.665013,2368.659014,-14656.077652,-74464.482406
4937.667573,2812.782580,14804.118840,-73851.606007
4937.670133,-26943.496289,21021.848753,-78448.178995
4937.672692,-63657.711012,8290.306550,-84423.723880
4937.675252,34049.473332,-5921.647536,-82585.094684
4937.677812,-10066.800811,-3404.947333,-77835.302597
4937.680372,-48409.468607,3108.864956,-83044.751983
4937.682932,84531.518576,-5181.441594,-73851.606007
4937.685491,8586.388927,-3552.988522,-71553.319513
4937.688051,-8290.306550,13915.871710,-80746.465489
4937.690611,48409.468607,-3256.906145,-74464.482406
4937.693171,-49741.839302,-296.082377,-81359.341888
4937.695731,-29164.114115,33457.308578,-83197.971083
4937.698291,35233.802839,-19245.354492,-73085.510509
4937.700850,-6809.894666,-9474.636058,-73391.948708
4937.703410,-37602.461854,444.123565,-81818.999186
4937.705970,-1480.411884,18949.272115,-84730.162079
4937.708530,10066.800811,2664.741391,-78907.836294
4937.711090,-888.247130,11695.253884,-76456.330700
4937.713649,11843.295072,-45596.686027,-77069.207099
4937.716209,444.123565,50185.962868,-74617.701505
4937.718769,-5773.606348,-6365.771101,-78601.398095
4937.721329,7994.224174,-11103.089130,-80286.808190
4937.723889,14804.118840,-2368.659014,-81512.560987
4937.726448,6809.894666,1184.329507,-77988.521696
4937.729008,-8290.306550,-10807.006753,-74158.044206
4937.731568,10807.006753,24130.713709,-77069.207099
4937.734128,16136.489536,4293.194464,-76915.987999
4937.736688,-2220.617826,2072.576638,-81206.122788
4937.739249,11251.130318,20725.766376,-79214.274493
4937.741810,11399.171507,-13619.789333,-79061.055394
4937.744371,-6809.894666,-21021.848753,-74311.263306
4937.746932,-9178.553681,43820.191766,-75996.673402
4937.749493,1628.453072,86900.177591,-74311.263306
4937.752054,-39230.914926,-44560.397708,-82891.532884
4937.754615,-49001.633360,-38194.626607,-87181.667672
4937.757176,23094.425390,-4145.153275,-82125.437386
4937.759737,54035.033766,3552.988522,-65730.993728
4937.762298,-16876.695478,-3108.864956,-74158.044206
4937.764859,-49149.674549,-29016.072926,-93463.650756
4937.767420,51074.209998,29608.237680,-79827.150892
4937.769982,58180.187041,74168.635388,-63585.926334
4937.772543,-11695.253884,-5033.400406,-73698.386908
4937.775104,-888.247130,-31976.896694,-80286.808190
4937.777665,26203.290347,-8142.265362,-75996.673402
4937.780226,1924.535449,8142.265362,-82125.437386
4937.782787,5181.441594,13767.830521,-81359.341888
4937.785348,31236.690752,2960.823768,-75383.797003
4937.787909,-6513.812290,-14508.036463,-76762.768900
4937.790470,148.041188,30644.525999,-78754.617194
4937.793031,27831.743419,-16136.489536,-77682.083497
4937.795592,-8438.347739,6513.812290,-79827.150892
4937.798153,-17912.983796,7402.059420,-82125.437386
4937.800714,7846.182985,-46484.933158,-79061.055394
4937.803275,-20577.725188,43820.191766,-77528.864398
4937.805836,-5033.400406,3997.112087,-78907.836294
4937.808398,24870.919651,-6365.771101,-76149.892501
4937.810959,-6809.894666,12287.418637,-79980.369991
4937.813520,-19097.313304,15840.407159,-77682.083497
4937.816081,25315.043216,-49149.674549,-80440.027290
4937.818642,-11695.253884,19393.395680,-77682.083497
4937.821203,-20429.683999,12139.377449,-83810.847481
4937.823764,-2664.741391,9770.718434,-73851.606007
4937.826325,-40859.367998,11843.295072,-83504.409282
4937.828886,-42783.903448,296.082377,-87947.763170
4937.831447,89120.795417,-19245.354492,-73085.510509
4937.834008,-32272.979071,10066.800811,-71706.538613
4937.836569,-80682.447678,12879.583391,-87028.448573
4937.839130,91045.330866,-17468.860231,-76915.987999
4937.841693,114879.962198,-444.123565,-67263.184724
4937.844255,-65286.164084,40711.326810,-77222.426198
4937.846817,-42487.821071,-30792.567187,-92084.678860
4937.849379,71799.976374,-27091.537477,-75077.358804
4937.851942,-51814.415940,43228.027013,-72166.195912
4937.854504,-22502.260637,-15396.283594,-79673.931792
4937.857066,55219.363273,11103.089130,-76149.892501
4937.859628,-49889.880491,-21465.972318,-80746.465489
4937.862191,-32717.102636,5477.523971,-87334.886772
4937.864753,42783.903448,26943.496289,-71553.319513
4937.867315,-19245.354492,14508.036463,-72932.291410
4937.869878,2960.823768,-37898.544230,-81665.780087
4937.872440,15544.324782,42191.738694,-82125.437386
4937.875002,3997.112087,7402.059420,-77222.426198
4937.877564,-11843.295072,-13915.871710,-79980.369991
4937.880127,20281.642811,14359.995275,-76609.549800
4937.882689,-2812.782580,-12879.583391,-75690.235202
4937.885251,-19541.436869,7254.018232,-80593.246390
4937.887813,33309.267390,22650.301825,-75537.016103
4937.890376,8142.265362,-5773.606348,-80133.589091
4937.892938,-888.247130,6069.688724,-82891.532884
4937.895500,20429.683999,12139.377449,-78141.740796
4937.898062,9178.553681,-17024.736666,-73085.510509
4937.900625,740.205942,-14359.995275,-82431.875585
4937.903187,-13323.706956,45596.686027,-78448.178995
4937.905749,-17172.777854,-22946.384202,-78448.178995
4937.908312,17764.942608,-77277.500345,-84730.162079
4937.910874,6809.894666,17172.777854,-79827.150892
4937.913436,9178.553681,73576.470635,-72012.976812
4937.915998,1480.411884,-42783.903448,-75383.797003
4937.918561,2812.782580,-40415.244433,-82585.094684
4937.921123,28275.866984,16136.489536,-84423.723880
4937.923685,33901.432144,64249.875766,-69101.813920
4937.926247,24130.713709,6365.771101,-67569.622924
4937.928810,-9474.636058,-21762.054695,-80440.027290
4937.931372,1776.494261,-13471.748144,-80746.465489
4937.933934,28127.825796,-16284.530724,-80746.465489
4937.936497,3701.029710,10066.800811,-77682.083497
4937.939059,9622.677246,-16136.489536,-81512.560987
4937.941621,17320.819043,13175.665768,-74924.139704
4937.944183,12879.583391,-29904.320057,-74924.139704
4937.946746,-13027.624579,14063.912898,-77835.302597
4937.949308,11695.253884,16580.613101,-84576.942979
4937.951870,5033.400406,-3997.112087,-80593.246390
4937.954432,-18653.189738,-7105.977043,-77375.645298
4937.956995,-14656.077652,19985.560434,-75230.577904
4937.959557,18061.024985,-4145.153275,-81359.341888
4937.962119,17320.819043,-6513.812290,-77069.207099
4937.964682,-12139.377449,15988.448347,-75843.454302
4937.967244,15248.242405,10807.006753,-75690.235202
4937.969806,9622.677246,-23538.548956,-81972.218286
4937.972368,-19393.395680,11991.336260,-77835.302597
4937.974931,2516.700203,-3552.988522,-76149.892501
4937.977493,-18801.230927,-9030.512492,-76762.768900
4937.980055,-15840.407159,20873.807564,-82738.313784
4937.982618,-28127.825796,32124.937883,-82585.094684
4937.985180,-57291.939911,-11843.295072,-81206.122788
4937.987742,55663.486838,-23390.507767,-73698.386908
4937.990304,86159.971649,-16432.571912,-74924.139704
4937.992867,-29016.072926,16876.695478,-77528.864398
4937.995429,-56551.733969,11103.089130,-85802.695776
4937.997991,38194.626607,-29904.320057,-80286.808190
4938.000554,49889.880491,9326.594869,-72625.853210
4938.003116,-19985.560434,14804.118840,-77528.864398
4938.005678,5033.400406,14063.912898,-73545.167808
4938.008240,34937.720462,-10955.047942,-77682.083497
4938.010803,-30792.567187,1036.288319,-82585.094684
4938.013365,-6217.729913,2664.741391,-81512.560987
4938.015927,21762.054695,-5033.400406,-73698.386908
4938.018490,-21614.013506,7105.977043,-78601.398095
4938.021052,1776.494261,7254.018232,-78141.740796
4938.023614,11103.089130,-36418.132346,-76609.549800
4938.026176,-8142.265362,-3404.947333,-81665.780087
4938.028739,444.123565,40563.285622,-81512.560987
4938.031301,12287.418637,-7846.182985,-76303.111601
4938.033863,2220.617826,-23390.507767,-77682.083497
4938.036425,3997.112087,35677.926404,-76149.892501
4938.038988,12731.542202,-32569.061448,-76915.987999
4938.041550,-3701.029710,5921.647536,-80746.465489
4938.044112,17764.942608,21169.889941,-79214.274493
4938.046673,7698.141797,-8586.388927,-75077.358804
4938.049234,-2220.617826,12583.501014,-74311.263306
4938.051795,4885.359217,27387.619854,-79980.369991
4938.054356,-7698.141797,1480.411884,-77528.864398
4938.056917,-30348.443622,25315.043216,-79520.712692
4938.059478,3849.070898,-64249.875766,-84730.162079
4938.062039,69135.234983,38342.667796,-73391.948708
4938.064600,-18801.230927,42635.862259,-71553.319513
4938.067161,-66618.534780,-28127.825796,-83351.190182
4938.069722,32717.102636,2368.659014,-81359.341888
4938.072283,54479.157331,47669.262665,-70480.785816
4938.074844,-69135.234983,-54183.074954,-86262.353075
4938.077405,-1924.535449,2516.700203,-84423.723880
4938.079966,42487.821071,8734.430116,-81818.999186
4938.082527,3552.988522,26203.290347,-71400.100414
4938.085088,-9178.553681,4145.153275,-79214.274493
4938.087649,48409.468607,6809.894666,-75383.797003
4938.090210,9474.636058,-15396.283594,-81206.122788
4938.092771,-33457.308578,12583.501014,-81359.341888
4938.095332,56699.775157,-21910.095883,-72319.415011
4938.097893,-8734.430116,3849.070898,-73238.729609
4938.100454,-23242.466579,22946.384202,-86568.791274
4938.103015,26203.290347,-13767.830521,-79214.274493
4938.105576,-14359.995275,-15988.448347,-78294.959896
4938.108138,-35381.844028,54183.074954,-78601.398095
4938.110699,5625.565159,-3997.112087,-81052.903688
4938.113260,27239.578666,-9770.718434,-77222.426198
4938.115821,-17764.942608,19985.560434,-77528.864398
4938.118382,9474.636058,10362.883188,-74770.920605
4938.120943,14656.077652,-24574.837274,-79520.712692
4938.123504,-18061.024985,7550.100608,-79673.931792
4938.126065,0.000000,-19837.519246,-82585.094684
4938.128626,-24278.754898,1184.329507,-78754.617194
4938.131187,-45300.603650,29904.320057,-84883.381178
4938.133748,148.041188,-19837.519246,-82278.656485
4938.136309,71948.017562,10510.924376,-76456.330700
4938.138870,-15544.324782,-2220.617826,-72472.634111
4938.141431,-54775.239708,-10955.047942,-89020.296868
4938.143992,74464.717765,-1776.494261,-80440.027290
4938.146553,2072.576638,21169.889941,-70174.347617
4938.149113,-26203.290347,1480.411884,-78754.617194
4938.151674,69727.399736,-17616.901420,-79061.055394
4938.154235,-25018.960840,15840.407159,-80286.808190
4938.156796,-21614.013506,17468.860231,-81512.560987
4938.159356,42191.738694,11843.295072,-67569.622924
4938.161917,-23538.548956,-26499.372724,-77222.426198
4938.164478,-52554.621882,4441.235652,-91625.021561
4938.167038,-4589.276840,14804.118840,-83810.847481
4938.169599,33309.267390,15840.407159,-72625.853210
4938.172160,-13175.665768,-47521.221476,-77069.207099
4938.174721,7994.224174,39823.079680,-79520.712692
4938.177281,9622.677246,12879.583391,-76149.892501
4938.179842,-7698.141797,-11843.295072,-83504.409282
4938.182403,17764.942608,2812.782580,-81512.560987
4938.184963,5921.647536,-14063.912898,-75843.454302
4938.187524,-15692.365970,12287.418637,-76609.549800
4938.190085,22502.260637,32865.143825,-72932.291410
4938.192646,24722.878463,-7550.100608,-79214.274493
4938.195206,-7402.059420,10955.047942,-77988.521696
4938.197767,8142.265362,10214.842000,-82738.313784
4938.200328,24426.796086,-31532.773129,-72625.853210
4938.202889,11991.336260,-34049.473332,-77222.426198
4938.205449,7254.018232,16284.530724,-78601.398095
4938.208010,-27091.537477,77573.582722,-75077.358804
4938.210571,-33309.267390,-10807.006753,-84423.723880
4938.213131,42783.903448,-45152.562462,-83657.628382
4938.215692,38194.626607,9622.677246,-69714.690318
4938.218253,-30644.525999,18949.272115,-72779.072310
4938.220814,-42635.862259,3997.112087,-86568.791274
4938.223374,88232.548286,592.164754,-76303.111601
4938.225935,82903.065504,-1628.453072,-72779.072310
4938.228496,-10510.924376,1628.453072,-70634.004916
4938.231057,-16876.695478,-4737.318029,-81206.122788
4938.233617,31236.690752,-10510.924376,-80440.027290
4938.236178,2516.700203,24426.796086,-77835.302597
4938.238739,5625.565159,12879.583391,-77988.521696
4938.241299,15840.407159,-5033.400406,-73698.386908
4938.243860,4293.194464,17912.983796,-77835.302597
4938.246421,8142.265362,-23982.672521,-80440.027290
4938.248982,1480.411884,6217.729913,-78907.836294
4938.251541,-12435.459826,22650.301825,-78754.617194
4938.254100,-6809.894666,-35381.844028,-80286.808190
4938.256660,-6217.729913,18505.148550,-80286.808190
4938.259219,-8882.471304,296.082377,-83504.409282
4938.261779,11547.212695,-13175.665768,-74464.482406
4938.264338,9770.718434,23834.631332,-75996.673402
4938.266897,592.164754,17468.860231,-78294.959896
4938.269457,12139.377449,-30644.525999,-78907.836294
4938.272016,-3404.947333,21910.095883,-81359.341888
4938.274575,-33753.390955,8438.347739,-82125.437386
4938.277135,-23982.672521,-35529.885216,-82278.656485
4938.279694,-31680.814318,17468.860231,-80440.027290
4938.282254,55367.404462,-10362.883188,-77682.083497
4938.284813,84087.395011,-21169.889941,-71400.100414
4938.287372,-13175.665768,28719.990550,-74464.482406
4938.289932,-47669.262665,5329.482782,-87794.544071
4938.292491,71355.852809,-16136.489536,-74311.263306
4938.295051,-70319.564490,28127.825796,-79367.493593
4938.297610,-28868.031738,-5625.565159,-88407.420469
4938.300169,74612.758954,-37898.544230,-72166.195912
4938.302729,-49297.715737,11103.089130,-84117.285680
4938.305288,-19689.478057,34493.596897,-84117.285680
4938.307847,57291.939911,-3849.070898,-64352.021832
4938.310407,-57143.898722,-3701.029710,-78448.178995
4938.312966,-55515.445650,7254.018232,-87028.448573
4938.315526,40267.203245,14656.077652,-81206.122788
4938.318085,19837.519246,-54331.116143,-74311.263306
4938.320644,-21317.931130,37454.420665,-79367.493593
4938.323204,15544.324782,2072.576638,-76303.111601
4938.325763,5329.482782,296.082377,-78448.178995
4938.328323,592.164754,18209.066173,-80746.465489
4938.330882,8142.265362,-18949.272115,-78448.178995
4938.333441,-2664.741391,10066.800811,-79061.055394
4938.336001,13767.830521,16284.530724,-75537.016103
4938.338560,21317.931130,-7698.141797,-74311.263306
4938.341120,-1184.329507,1332.370696,-77375.645298
4938.343679,17764.942608,8734.430116,-78601.398095
4938.346238,26351.331535,-26203.290347,-81512.560987
4938.348798,-28275.866984,15988.448347,-80286.808190
4938.351357,-28571.949361,56847.816346,-77682.083497
4938.353866,28275.866984,-30052.361245,-76915.987999
4938.356375,46632.974346,17912.983796,-71706.538613
4938.358885,-53442.869012,3256.906145,-81972.218286
4938.361394,-33901.432144,-16728.654289,-87641.324971
4938.363903,9770.718434,-23982.672521,-79367.493593
4938.366412,26647.413912,10214.842000,-72625.853210
4938.368921,33457.308578,-41451.532752,-74617.701505
4938.371430,-25315.043216,15248.242405,-78601.398095
4938.373940,-27387.619854,30940.608376,-81052.903688
4938.376449,29164.114115,8586.388927,-72932.291410
4938.378958,22946.384202,5033.400406,-75537.016103
4938.381467,-592.164754,-1776.494261,-83351.190182
4938.383976,11547.212695,5033.400406,-78754.617194
4938.386485,30940.608376,-44560.397708,-74464.482406
4938.388995,-24426.796086,29164.114115,-77375.645298
4938.391504,16728.654289,19097.313304,-81359.341888
4938.394013,15988.448347,-19985.560434,-77988.521696
4938.396522,-24870.919651,1776.494261,-79520.712692
4938.399031,-6365.771101,11103.089130,-77835.302597
4938.401540,20873.807564,-6217.729913,-79061.055394
4938.404050,1628.453072,-4589.276840,-76149.892501
4938.406559,-8438.347739,592.164754,-81206.122788
4938.409068,15396.283594,7698.141797,-77682.083497
4938.411577,-2812.782580,4885.359217,-80286.808190
4938.414086,-7254.018232,-29016.072926,-84576.942979
4938.416595,-9770.718434,1628.453072,-76303.111601
4938.419105,-10510.924376,49593.798114,-74617.701505
4938.421614,-37010.297100,11547.212695,-83657.628382
4938.424123,-67802.864287,-7994.224174,-89326.735067
4938.426632,28423.908173,-3552.988522,-80133.589091
4938.429141,41599.573940,-13175.665768,-74617.701505
4938.431650,16876.695478,-888.247130,-75077.358804
4938.434160,-34937.720462,10955.047942,-86109.133975
4938.436669,62029.257940,-2368.659014,-77988.521696
4938.439178,-12731.542202,14952.160028,-70480.785816
4938.441687,-53294.827824,2072.576638,-81665.780087
4938.444196,53886.992578,-18653.189738,-79061.055394
4938.446705,2812.782580,3256.906145,-77988.521696
4938.449215,-40267.203245,4589.276840,-83504.409282
4938.451724,21169.889941,12583.501014,-75996.673402
4938.454244,-4441.235652,2072.576638,-78754.617194
4938.456764,-2368.659014,13175.665768,-79214.274493
4938.459284,20429.683999,-52850.704259,-79673.931792
4938.461803,2960.823768,28868.031738,-75383.797003
4938.464323,-21169.889941,17764.942608,-80746.465489
4938.466843,20725.766376,-10214.842000,-80133.589091
4938.469363,15544.324782,5921.647536,-78141.740796
4938.471883,-10362.883188,-8586.388927,-78141.740796
4938.474403,-3404.947333,2812.782580,-79520.712692
4938.476923,22206.178260,31384.731941,-74158.044206
4938.479443,12139.377449,-1628.453072,-77682.083497
4938.481963,1332.370696,-1924.535449,-81052.903688
4938.484483,17172.777854,3997.112087,-74617.701505
4938.487003,18949.272115,-14952.160028,-77682.083497
4938.489523,-19985.560434,20725.766376,-79061.055394
4938.492043,-7698.141797,46040.809592,-77069.207099
4938.494562,89712.960170,-60992.969621,-72932.291410
4938.497082,16876.695478,-43228.027013,-77835.302597
4938.499602,-73872.553012,72244.099939,-85036.600278
4938.502122,-2516.700203,11991.336260,-80593.246390
4938.504642,67802.864287,-40859.367998,-70480.785816
4938.507162,45744.727216,-25611.125593,-71246.881314
4938.509682,-37010.297100,11399.171507,-80286.808190
4938.512202,-1036.288319,21910.095883,-88254.201370
4938.514722,47373.180288,-13175.665768,-73391.948708
4938.517242,19097.313304,2220.617826,-73085.510509
4938.519762,-16728.654289,-9030.512492,-83351.190182
4938.522282,22502.260637,20133.601622,-77988.521696
4938.524802,19393.395680,-35677.926404,-78294.959896
4938.527322,-18357.107362,44708.438897,-79061.055394
4938.529841,34049.473332,4589.276840,-77222.426198
4938.532361,4293.194464,-21465.972318,-77222.426198
4938.534881,-37158.338288,23390.507767,-80133.589091
4938.537401,3552.988522,-31680.814318,-77528.864398
4938.539921,-5921.647536,27387.619854,-78907.836294
4938.542441,-12879.583391,1628.453072,-86568.791274
4938.544961,17320.819043,-11695.253884,-78294.959896
4938.547481,23686.590144,18061.024985,-72625.853210
4938.550001,-5773.606348,16432.571912,-79367.493593
4938.552521,2220.617826,-25315.043216,-80746.465489
4938.554998,10955.047942,20577.725188,-76609.549800
4938.557480,-20873.807564,-2220.617826,-79061.055394
4938.559962,22798.343014,-41895.656317,-80440.027290
4938.562444,84383.477388,18357.107362,-70021.128517
4938.564926,-60992.969621,35529.885216,-76149.892501
4938.567408,-48705.550984,-21169.889941,-86568.791274
4938.569889,79646.159359,-11547.212695,-75537.016103
4938.572371,-18209.066173,20281.642811,-77069.207099
4938.574853,-102740.584750,19985.560434,-82125.437386
4938.577335,2516.700203,1924.535449,-84730.162079
4938.579817,60400.804867,-17764.942608,-70327.566716
4938.582298,-57439.981099,-28275.866984,-86568.791274
4938.584780,-11547.212695,39675.038491,-82738.313784
4938.587262,40267.203245,16432.571912,-69255.033019
4938.589744,-42635.862259,-23094.425390,-81665.780087
4938.592226,-11991.336260,19097.313304,-83351.190182
4938.594708,21317.931130,17024.736666,-74617.701505
4938.597189,-6957.935855,-59216.475360,-80593.246390
4938.599671,3256.906145,31236.690752,-79673.931792
4938.602153,15544.324782,35974.008781,-78601.398095
4938.604635,-3552.988522,1628.453072,-77682.083497
4938.607117,6513.812290,-18653.189738,-80440.027290
4938.609599,21169.889941,29312.155303,-76149.892501
4938.612080,4145.153275,-38342.667796,-75230.577904
4938.614562,-4589.276840,13027.624579,-81206.122788
4938.617044,22206.178260,35529.885216,-77222.426198
4938.619526,444.123565,-6809.894666,-79827.150892
4938.622008,10066.800811,8734.430116,-74617.701505
4938.624490,40119.162056,-3552.988522,-76303.111601
4938.626971,-3404.947333,20429.683999,-75996.673402
4938.629453,40711.326810,-37158.338288,-76915.987999
4938.631935,21317.931130,-30940.608376,-76456.330700
4938.634417,-49445.756926,17764.942608,-85496.257577
4938.636899,11547.212695,2960.823768,-80593.246390
4938.639381,30940.608376,-54923.280896,-73238.729609
4938.641862,-22206.178260,34937.720462,-78448.178995
4938.644344,36566.173535,-5477.523971,-76762.768900
4938.646826,11103.089130,-5477.523971,-78294.959896
4938.649308,-3849.070898,16284.530724,-78907.836294
4938.651790,9326.594869,-22354.219448,-81359.341888
4938.654289,8586.388927,30644.525999,-79061.055394
4938.656789,22206.178260,14063.912898,-76303.111601
4938.659289,8586.388927,-16876.695478,-77222.426198
4938.661789,15100.201217,29016.072926,-77375.645298
4938.664289,15396.283594,-9770.718434,-77682.083497
4938.666788,-10658.965565,-23982.672521,-78448.178995
4938.669288,-14952.160028,27239.578666,-79673.931792
4938.671788,-592.164754,-32717.102636,-78754.617194
4938.674288,-20577.725188,36270.091158,-77988.521696
4938.676787,-4589.276840,4441.235652,-82125.437386
4938.679287,15988.448347,-21169.889941,-78907.836294
4938.681787,-5773.606348,28127.825796,-76149.892501
4938.684287,6957.935855,2072.576638,-74464.482406
4938.686787,13619.789333,1628.453072,-74924.139704
4938.689286,-1332.370696,2960.823768,-81972.218286
4938.691786,-27535.661042,-30348.443622,-79673.931792
4938.694286,-21021.848753,34641.638086,-79980.369991
4938.696786,-71207.811620,31384.731941,-85802.695776
4938.699285,17468.860231,-26795.455100,-83197.971083
4938.701785,42487.821071,-2220.617826,-68335.718422
4938.704285,-36122.049970,28423.908173,-74464.482406
4938.706785,-19393.395680,-9622.677246,-87641.324971
4938.709284,62917.505070,-24870.919651,-81972.218286
4938.711784,-60104.722490,10066.800811,-78294.959896
4938.714284,-37750.503042,36122.049970,-77528.864398
4938.716784,20281.642811,39823.079680,-78448.178995
4938.719284,18357.107362,-39823.079680,-73545.167808
4938.721783,-33457.308578,2220.617826,-81359.341888
4938.724283,6957.935855,25759.166782,-80133.589091
4938.726783,0.000000,3404.947333,-75230.577904
4938.729283,-7550.100608,0.000000,-79980.369991
4938.731782,21465.972318,-16580.613101,-76149.892501
4938.734282,-5329.482782,-26351.331535,-78907.836294
4938.736782,-15248.242405,46929.056723,-81512.560987
4938.739282,24870.919651,2072.576638,-77988.521696
4938.741782,6217.729913,-34345.555709,-77835.302597
4938.744281,-6217.729913,37158.338288,-77835.302597
4938.746781,21317.931130,-10066.800811,-74770.920605
4938.749281,14656.077652,-27535.661042,-79520.712692
4938.751781,-5921.647536,25315.043216,-81972.218286
4938.754294,7550.100608,592.164754,-74311.263306
4938.756807,13915.871710,9770.718434,-77682.083497
4938.759320,28719.990550,11103.089130,-78754.617194
4938.761834,35233.802839,10214.842000,-71553.319513
4938.764347,38490.708984,-47965.345042,-74770.920605
4938.766860,-22946.384202,-3552.988522,-83044.751983
4938.769374,-31384.731941,44116.274143,-83810.847481
4938.771887,31236.690752,-11991.336260,-77069.207099
4938.774400,21614.013506,-1480.411884,-74770.920605
4938.776913,54775.239708,-46484.933158,-72779.072310
4938.779427,15248.242405,-2960.823768,-77682.083497
4938.781940,-5477.523971,21762.054695,-80133.589091
4938.784453,14359.995275,-5033.400406,-81665.780087
4938.786967,21910.095883,21465.972318,-75843.454302
4938.789480,11103.089130,2368.659014,-78907.836294
4938.791993,3108.864956,9178.553681,-75996.673402
4938.794506,31828.855506,-31532.773129,-79061.055394
4938.797020,-4589.276840,-11547.212695,-79367.493593
4938.799533,5181.441594,24574.837274,-82431.875585
4938.802046,15840.407159,2220.617826,-74924.139704
4938.804559,-10066.800811,-38046.585419,-75690.235202
4938.807073,-30052.361245,40859.367998,-81972.218286
4938.809586,19097.313304,592.164754,-81665.780087
4938.812099,9770.718434,-15396.283594,-73851.606007
4938.814613,-17172.777854,11695.253884,-80899.684589
4938.817126,13175.665768,-592.164754,-79980.369991
4938.819639,-3552.988522,3997.112087,-80440.027290
4938.822152,-7105.977043,-25759.166782,-76762.768900
4938.824666,8142.265362,17912.983796,-77988.521696
4938.827179,5329.482782,-3849.070898,-79827.150892
4938.829692,22502.260637,-16728.654289,-78294.959896
4938.832206,11695.253884,7698.141797,-73851.606007
4938.834719,-67062.658345,40119.162056,-79827.150892
4938.837232,18949.272115,-35529.885216,-79827.150892
4938.839745,36270.091158,-21465.972318,-76915.987999
4938.842259,-70615.646867,62325.340316,-86262.353075
4938.844772,36714.214723,-11695.253884,-79214.274493
4938.847285,58032.145853,-51814.415940,-66803.527426
4938.849799,-53738.951389,6661.853478,-87488.105872
4938.852312,-2368.659014,19541.436869,-80593.246390
4938.854837,33161.226202,-2960.823768,-72625.853210
4938.857362,-43820.191766,4293.194464,-83197.971083
4938.859887,11843.295072,12879.583391,-79367.493593
4938.862412,24722.878463,-38046.585419,-75843.454302
4938.864937,-12731.542202,29904.320057,-77528.864398
4938.867462,-4737.318029,-2072.576638,-80746.465489
4938.869987,21021.848753,2220.617826,-77528.864398
4938.872512,-11695.253884,16432.571912,-80133.589091
4938.875037,-3997.112087,-22206.178260,-81206.122788
4938.877562,10658.965565,32569.061448,-77375.645298
4938.880087,23834.631332,-14063.912898,-73545.167808
4938.882612,2368.659014,-19097.313304,-80286.808190
4938.885137,-3404.947333,18949.272115,-81818.999186
4938.887662,6069.688724,2960.823768,-74004.825107
4938.890187,0.000000,5477.523971,-79827.150892
4938.892712,15840.407159,20133.601622,-79061.055394
4938.895237,65730.287650,-4145.153275,-71706.538613
4938.897762,1480.411884,-36714.214723,-75230.577904
4938.900287,-75204.923707,64101.834577,-85496.257577
4938.902812,13175.665768,6365.771101,-83351.190182
4938.905337,37158.338288,-31088.649564,-74617.701505
4938.907862,28868.031738,-2072.576638,-74770.920605
4938.910387,8734.430116,2220.617826,-73545.167808
4938.912912,-33457.308578,24722.878463,-79980.369991
4938.915437,22058.137072,10214.842000,-78907.836294
4938.917962,29904.320057,-13323.706956,-73545.167808
4938.920487,13619.789333,-15396.283594,-78601.398095
4938.923012,-19837.519246,21762.054695,-83657.628382
4938.925537,50778.127621,-42783.903448,-75537.016103
4938.928062,740.205942,25167.002028,-74924.139704
4938.930587,-3108.864956,20577.725188,-80899.684589
4938.933112,22946.384202,-14211.954086,-76149.892501
4938.935637,-21317.931130,1480.411884,-79980.369991
4938.938162,-20577.725188,-7698.141797,-81972.218286
4938.940687,13471.748144,14063.912898,-74924.139704
4938.943212,-18949.272115,7550.100608,-79827.150892
4938.945737,1776.494261,-17468.860231,-80746.465489
4938.948262,24574.837274,10362.883188,-75537.016103
4938.950787,10362.883188,1776.494261,-75230.577904
4938.953312,-16284.530724,-14359.995275,-85649.476676
4938.955845,-19245.354492,24130.713709,-78601.398095
4938.958379,-39378.956114,-14063.912898,-81512.560987
4938.960912,-50778.127621,36714.214723,-81818.999186
4938.963446,61585.134374,14508.036463,-77835.302597
4938.965979,-33605.349767,-23538.548956,-77528.864398
4938.968513,-38786.791361,3849.070898,-80440.027290
4938.971047,16728.654289,1480.411884,-80593.246390
4938.973580,-2516.700203,-5329.482782,-78601.398095
4938.976114,-63213.587447,56847.816346,-83657.628382
4938.978647,-46336.891969,27239.578666,-84883.381178
4938.981181,24278.754898,31976.896694,-72625.853210
4938.983715,7402.059420,-7254.018232,-74158.044206
4938.986248,-33605.349767,-9178.553681,-82278.656485
4938.988782,8586.388927,9918.759623,-79827.150892
4938.991315,4293.194464,24870.919651,-74158.044206
4938.993849,-1332.370696,-42487.821071,-81359.341888
4938.996382,11695.253884,34049.473332,-77528.864398
4938.998916,-5477.523971,-19393.395680,-77222.426198
4939.001450,5773.606348,7698.141797,-78141.740796
4939.003983,15840.407159,25907.207970,-77988.521696
4939.006517,1924.535449,-148.041188,-78907.836294
4939.009050,-1628.453072,3108.864956,-79520.712692
4939.011584,20577.725188,22058.137072,-76762.768900
4939.014117,23242.466579,-15396.283594,-74924.139704
4939.016651,-296.082377,-17172.777854,-83044.751983
4939.019185,4145.153275,8734.430116,-75230.577904
4939.021718,16580.613101,16876.695478,-74770.920605
4939.024252,58624.310606,3108.864956,-74004.825107
4939.026785,42635.862259,-27535.661042,-75690.235202
4939.029319,-54775.239708,21614.013506,-81818.999186
4939.031853,-21021.848753,21614.013506,-82125.437386
4939.034386,58624.310606,-36270.091158,-76149.892501
4939.036920,59512.557737,-55367.404462,-76609.549800
4939.039453,6069.688724,20725.766376,-73698.386908
4939.041987,-51370.292375,46484.933158,-76915.987999
4939.044520,30792.567187,-18209.066173,-82585.094684
4939.047054,34937.720462,-12731.542202,-75383.797003
4939.049588,-25018.960840,-3256.906145,-77222.426198
4939.052121,22206.178260,14359.995275,-79673.931792
4939.054655,24278.754898,740.205942,-76762.768900
4939.057196,-2072.576638,16876.695478,-80746.465489
4939.059737,37602.461854,-27979.784608,-76609.549800
4939.062278,1036.288319,1480.411884,-76762.768900
4939.064819,-28423.908173,13471.748144,-81665.780087
4939.067360,-16580.613101,-36122.049970,-83657.628382
4939.069901,-592.164754,27831.743419,-80286.808190
4939.072442,-15988.448347,4441.235652,-79827.150892
4939.074983,15692.365970,-15544.324782,-77682.083497
4939.077524,6957.935855,24870.919651,-72779.072310
4939.080065,-2960.823768,7994.224174,-75077.358804
4939.082606,5477.523971,-1332.370696,-81818.999186
4939.085147,-1036.288319,-45448.644839,-82431.875585
4939.087688,-5329.482782,4589.276840,-79520.712692
4939.090229,-26943.496289,-13175.665768,-78294.959896
4939.092770,-66914.617157,41155.450375,-83504.409282
4939.095311,-47373.180288,42191.738694,-86722.010374
4939.097852,50778.127621,-7846.182985,-73085.510509
4939.100393,10658.965565,-15100.201217,-72166.195912
4939.102934,3997.112087,-12731.542202,-84117.285680
4939.105475,41895.656317,-27239.578666,-79673.931792
4939.108016,-47965.345042,-4737.318029,-78907.836294
4939.110557,-29460.196492,62473.381505,-75077.358804
4939.113098,56551.733969,20577.725188,-73238.729609
4939.115639,-18801.230927,-31384.731941,-81665.780087
4939.118180,-26055.249158,6809.894666,-85036.600278
4939.120721,31236.690752,19985.560434,-71553.319513
4939.123262,-2960.823768,-45004.521274,-73085.510509
4939.125803,-23094.425390,34345.555709,-79827.150892
4939.128344,12879.583391,10214.842000,-78907.836294
4939.130885,10955.047942,-13915.871710,-80899.684589
4939.133426,1184.329507,14211.954086,-81052.903688
4939.135967,18949.272115,-25167.002028,-76149.892501
4939.138508,-5921.647536,18505.148550,-72625.853210
4939.141049,17172.777854,22502.260637,-79980.369991
4939.143590,20281.642811,-25611.125593,-80593.246390
4939.146131,-9770.718434,-5181.441594,-85036.600278
4939.148672,-6217.729913,22354.219448,-75996.673402
4939.151213,20577.725188,2072.576638,-72472.634111
4939.153754,57884.104664,6365.771101,-70480.785816
4939.156295,-20133.601622,-8438.347739,-75383.797003
4939.158841,-68839.152606,44856.480085,-87794.544071
4939.161388,40119.162056,-21910.095883,-83351.190182
4939.163934,74464.717765,-67062.658345,-72779.072310
4939.166481,-63657.711012,70467.605678,-76762.768900
4939.169027,-50334.004056,23686.590144,-84270.504780
4939.171574,89861.001359,-82014.818374,-74924.139704
4939.174120,-23242.466579,57439.981099,-76149.892501
4939.176666,-19837.519246,26795.455100,-79673.931792
4939.179213,66470.493592,-47225.139100,-75077.358804
4939.181759,44560.397708,15100.201217,-70327.566716
4939.184306,-25463.084405,-24574.837274,-81972.218286
4939.186852,5181.441594,-2072.576638,-78601.398095
4939.189399,36566.173535,32865.143825,-79980.369991
4939.191945,-12731.542202,-13915.871710,-79827.150892
4939.194492,-6069.688724,-5329.482782,-77835.302597
4939.197038,-6661.853478,9918.759623,-78448.178995
4939.199585,1332.370696,3552.988522,-77988.521696
4939.202131,-5329.482782,592.164754,-78448.178995
4939.204678,-4589.276840,-15840.407159,-81972.218286
4939.207224,18505.148550,11547.212695,-79980.369991
4939.209771,15692.365970,20873.807564,-77988.521696
4939.212317,-1184.329507,6217.729913,-79367.493593
4939.214864,-3997.112087,27239.578666,-77988.521696
4939.217410,23094.425390,11695.253884,-76915.987999
4939.219957,47965.345042,-39823.079680,-73698.386908
4939.222503,-66766.575968,15100.201217,-82891.532884
4939.225049,-45596.686027,29904.320057,-87181.667672
4939.227596,47225.139100,-14952.160028,-71400.100414
4939.230142,-13323.706956,1480.411884,-75230.577904
4939.232689,32569.061448,7846.182985,-79061.055394
4939.235235,-2664.741391,-22650.301825,-79214.274493
4939.237782,-49889.880491,32865.143825,-82585.094684
4939.240328,-4885.359217,60992.969621,-76762.768900
4939.242875,38342.667796,-8142.265362,-70327.566716
4939.245421,-28571.949361,-8142.265362,-81206.122788
4939.247968,6365.771101,29756.278868,-81052.903688
4939.250514,26351.331535,-41451.532752,-74924.139704
4939.253061,-27831.743419,34641.638086,-79673.931792
4939.255607,11991.336260,-8586.388927,-79980.369991
4939.258154,28127.825796,-1332.370696,-74311.263306
4939.260704,-12287.418637,20725.766376,-78907.836294
4939.263254,1628.453072,-17024.736666,-78907.836294
4939.265804,23242.466579,21317.931130,-78907.836294
4939.268355,16432.571912,-17764.942608,-77528.864398
4939.270905,8142.265362,-16876.695478,-81206.122788
4939.273455,-8734.430116,-11547.212695,-79827.150892
4939.276006,-8586.388927,31976.896694,-78141.740796
4939.278556,296.082377,7994.224174,-76456.330700
4939.281106,-37750.503042,-20281.642811,-81665.780087
4939.283656,-12583.501014,8734.430116,-87028.448573
4939.286207,38934.832549,-37750.503042,-74004.825107
4939.288757,-17616.901420,21910.095883,-74464.482406
4939.291307,-42931.944636,64693.999331,-79980.369991
4939.293857,27091.537477,-25167.002028,-77988.521696
4939.296408,19245.354492,-592.164754,-77988.521696
4939.298958,-42783.903448,34937.720462,-79367.493593
4939.301508,9030.512492,-31680.814318,-77069.207099
4939.304059,10955.047942,-10658.965565,-75996.673402
4939.306609,-1628.453072,45152.562462,-80440.027290
4939.309159,17172.777854,5181.441594,-77682.083497
4939.311709,46336.891969,-26203.290347,-73085.510509
4939.314260,-12435.459826,-8438.347739,-80286.808190
4939.316810,148.041188,-3108.864956,-82125.437386
4939.319360,27387.619854,16580.613101,-72779.072310
4939.321910,-24574.837274,444.123565,-75383.797003
4939.324461,-24426.796086,17468.860231,-81052.903688
4939.327011,25315.043216,-9474.636058,-81512.560987
4939.329561,21169.889941,-19689.478057,-74770.920605
4939.332112,-18505.148550,18061.024985,-78601.398095
4939.334662,6661.853478,9622.677246,-77069.207099
4939.337212,9770.718434,-9474.636058,-73698.386908
4939.339762,-6809.894666,3701.029710,-84423.723880
4939.342313,-4885.359217,39526.997303,-78294.959896
4939.344863,58920.392983,296.082377,-75537.016103
4939.347413,26055.249158,-46336.891969,-74464.482406
4939.349963,-42191.738694,17912.983796,-82738.313784
4939.352514,-8438.347739,23094.425390,-78601.398095
4939.355064,28719.990550,-30496.484810,-71553.319513
4939.357614,15396.283594,-48113.386230,-79061.055394
4939.360165,-23538.548956,2220.617826,-82891.532884
4939.362717,-51814.415940,63657.711012,-80440.027290
4939.365270,47521.221476,26499.372724,-69714.690318
4939.367823,-10807.006753,-38786.791361,-72166.195912
4939.370375,-36714.214723,14359.995275,-90705.706963
4939.372928,20133.601622,-444.123565,-79827.150892
4939.375481,2072.576638,-2220.617826,-76456.330700
4939.378033,-13027.624579,-15988.448347,-80899.684589
4939.380586,12583.501014,-15248.242405,-75383.797003
4939.383139,-3256.906145,46484.933158,-74158.044206
4939.385691,3849.070898,3404.947333,-81206.122788
4939.388244,9326.594869,-45744.727216,-83964.066581
4939.390797,26055.249158,27535.661042,-72012.976812
4939.393349,9030.512492,-27979.784608,-76303.111601
4939.395902,-6809.894666,5033.400406,-80746.465489
4939.398455,12287.418637,51222.251186,-83504.409282
4939.401007,15396.283594,-19689.478057,-70634.004916
4939.403560,22946.384202,-21614.013506,-77528.864398
4939.406113,31680.814318,20281.642811,-77835.302597
4939.408666,12139.377449,-5477.523971,-76303.111601
4939.411218,-53886.992578,13471.748144,-79061.055394
4939.413771,5181.441594,-3552.988522,-81512.560987
4939.416324,66026.370026,-25167.002028,-85343.038477
4939.418876,17764.942608,-19837.519246,-78294.959896
4939.421429,26351.331535,-7698.141797,-76303.111601
4939.423982,40859.367998,18061.024985,-72779.072310
4939.426534,-9178.553681,5773.606348,-77069.207099
4939.429087,5625.565159,-18357.107362,-78907.836294
4939.431640,31384.731941,23094.425390,-75383.797003
4939.434192,-9326.594869,18949.272115,-79980.369991
4939.436745,25167.002028,-27979.784608,-81206.122788
4939.439298,27979.784608,-23982.672521,-75843.454302
4939.441850,-18505.148550,20577.725188,-77375.645298
4939.444403,8438.347739,9326.594869,-76149.892501
4939.446956,4885.359217,-34049.473332,-80133.589091
4939.449508,-22650.301825,34641.638086,-81818.999186
4939.452061,-2368.659014,-2516.700203,-79827.150892
4939.454614,17172.777854,-18653.189738,-75077.358804
4939.457167,-20133.601622,14804.118840,-79367.493593
4939.459719,3404.947333,10807.006753,-76915.987999
4939.462272,22206.178260,-1776.494261,-74311.263306
4939.464787,-2664.741391,18061.024985,-80133.589091
4939.467301,21465.972318,21910.095883,-80593.246390
4939.469816,44856.480085,-42487.821071,-70174.347617
4939.472331,-86308.012837,-18653.189738,-83044.751983
4939.474846,-43524.109390,34049.473332,-89326.735067
4939.477360,20281.642811,5033.400406,-83657.628382
4939.479875,46336.891969,-26499.372724,-69714.690318
4939.482390,-85715.848084,22946.384202,-84730.162079
4939.484905,-11251.130318,32717.102636,-84117.285680
4939.487419,60844.928432,-29164.114115,-71400.100414
4939.489934,-52406.580694,-19393.395680,-74464.482406
4939.492449,-15840.407159,37454.420665,-84576.942979
4939.494964,35381.844028,-1628.453072,-77222.426198
4939.497478,-24722.878463,9474.636058,-80286.808190
4939.499993,9918.759623,-19393.395680,-79827.150892
4939.502508,14804.118840,19985.560434,-70634.004916
4939.505023,-8734.430116,296.082377,-74924.139704
4939.507537,-5921.647536,-18801.230927,-86109.133975
4939.510052,29904.320057,15248.242405,-81665.780087
4939.512567,7105.977043,-20281.642811,-76915.987999
4939.515082,-14656.077652,23390.507767,-73391.948708
4939.517596,42635.862259,1480.411884,-75690.235202
4939.520111,2664.741391,-20429.683999,-81512.560987
4939.522626,-7254.018232,27979.784608,-78601.398095
4939.525141,23686.590144,15544.324782,-78448.178995
4939.527655,18061.024985,-38342.667796,-78601.398095
4939.530170,52850.704259,3108.864956,-75077.358804
4939.532685,13175.665768,18209.066173,-67109.965625
4939.535200,-47521.221476,35677.926404,-76149.892501
4939.537715,-66618.534780,11547.212695,-92237.897959
4939.540229,18357.107362,-29608.237680,-83657.628382
4939.542744,57588.022288,-36270.091158,-73085.510509
4939.545259,25463.084405,28423.908173,-74770.920605
4939.547774,-8290.306550,3404.947333,-78448.178995
4939.550288,12287.418637,7550.100608,-81512.560987
4939.552803,41007.409187,14063.912898,-73851.606007
4939.555318,-11103.089130,-3997.112087,-80899.684589
4939.557833,23390.507767,-47077.097911,-84576.942979
4939.560347,21910.095883,27683.702231,-75843.454302
4939.562862,-10066.800811,13471.748144,-76915.987999
4939.565388,-8142.265362,13323.706956,-78141.740796
4939.567913,5033.400406,3552.988522,-77375.645298
4939.570438,-23686.590144,13175.665768,-79980.369991
4939.572963,1036.288319,-12139.377449,-81206.122788
4939.575489,5921.647536,-7994.224174,-79980.369991
4939.578014,-19393.395680,-5477.523971,-79980.369991
4939.580539,28571.949361,23538.548956,-74924.139704
4939.583064,24870.919651,11251.130318,-75230.577904
4939.585589,-27535.661042,-592.164754,-82125.437386
4939.588114,-13323.706956,-51222.251186,-88254.201370
4939.590639,-63509.669824,-53294.827824,-79673.931792
4939.593165,-34937.720462,54479.157331,-84883.381178
4939.595690,95338.525330,-27091.537477,-71859.757712
4939.598215,-38046.585419,-888.247130,-75230.577904
4939.600740,-34345.555709,25907.207970,-87181.667672
4939.603265,86752.136402,44264.315332,-67722.842023
4939.605790,-9622.677246,-46929.056723,-73238.729609
4939.608315,-41155.450375,-27683.702231,-91778.240660
4939.610841,35677.926404,25315.043216,-75690.235202
4939.613366,-30496.484810,-5477.523971,-72319.415011
4939.615891,-19245.354492,10214.842000,-88713.858668
4939.618416,48557.509795,16432.571912,-75537.016103
4939.620941,14063.912898,-47521.221476,-72932.291410
4939.623466,-37306.379477,43820.191766,-77682.083497
4939.625991,7994.224174,23982.672521,-78448.178995
4939.628517,17912.983796,-17764.942608,-80133.589091
4939.631042,4145.153275,5921.647536,-81972.218286
4939.633567,10066.800811,-14063.912898,-77375.645298
4939.636092,-4589.276840,5329.482782,-74464.482406
4939.638617,25759.166782,16580.613101,-78907.836294
4939.641142,14063.912898,-9918.759623,-80133.589091
4939.643667,-12731.542202,4885.359217,-78141.740796
4939.646193,17764.942608,29312.155303,-79980.369991
4939.648718,44412.356520,-13323.706956,-79673.931792
4939.651243,56699.775157,-25463.084405,-70787.224015
4939.653768,-9918.759623,39230.914926,-74924.139704
4939.656293,33309.267390,16432.571912,-76762.768900
4939.658818,41303.491564,-15988.448347,-75383.797003
4939.661343,-41451.532752,41599.573940,-79673.931792
4939.663869,14508.036463,-11695.253884,-79367.493593
4939.666402,-12879.583391,-23982.672521,-75843.454302
4939.668935,2072.576638,32865.143825,-82278.656485
4939.671468,28275.866984,-30940.608376,-78448.178995
4939.674001,-4737.318029,3256.906145,-78907.836294
4939.676534,1332.370696,29312.155303,-80746.465489
4939.679067,11547.212695,49001.633360,-76149.892501
4939.681600,42635.862259,-15840.407159,-70787.224015
4939.684133,-1480.411884,3404.947333,-76303.111601
4939.686666,-21910.095883,20133.601622,-80746.465489
4939.689199,-4737.318029,-44116.274143,-81359.341888
4939.691732,-17468.860231,33753.390955,-81052.903688
4939.694265,-14804.118840,7994.224174,-79520.712692
4939.696798,30644.525999,-25907.207970,-76762.768900
4939.699331,-11103.089130,19097.313304,-78448.178995
4939.701864,-2812.782580,16580.613101,-79980.369991
4939.704397,14952.160028,-9326.594869,-72932.291410
4939.706930,3997.112087,-17764.942608,-82738.313784
4939.709463,34789.679274,61881.216751,-76609.549800
4939.711997,10066.800811,-18357.107362,-69561.471218
4939.714530,-28571.949361,-26647.413912,-83044.751983
4939.717063,-5033.400406,22650.301825,-84270.504780
4939.719596,22502.260637,-9178.553681,-71859.757712
4939.722129,17320.819043,6365.771101,-75383.797003
4939.724662,-33161.226202,53146.786636,-80286.808190
4939.727195,10066.800811,-34937.720462,-85189.819378
4939.729728,12879.583391,-11251.130318,-72166.195912
4939.732261,-30644.525999,14508.036463,-73851.606007
4939.734794,-3552.988522,-888.247130,-81665.780087
4939.737327,29016.072926,16284.530724,-80899.684589
4939.739860,12731.542202,-23094.425390,-76915.987999
4939.742393,-18949.272115,40563.285622,-72932.291410
4939.744926,-296.082377,-6365.771101,-76915.987999
4939.747459,10214.842000,-8290.306550,-82125.437386
4939.749992,10807.006753,10807.006753,-79827.150892
4939.752525,6661.853478,-11251.130318,-76762.768900
4939.755058,3701.029710,24426.796086,-77682.083497
4939.757591,31236.690752,-13619.789333,-74464.482406
4939.760124,6809.894666,-14508.036463,-75690.235202
4939.762657,-2960.823768,46040.809592,-83810.847481
4939.765190,15988.448347,-148.041188,-74158.044206
4939.767730,52406.580694,-23242.466579,-73085.510509
4939.770270,7402.059420,21169.889941,-75077.358804
4939.772810,-53590.910201,29164.114115,-79980.369991
4939.775350,19837.519246,-46929.056723,-83504.409282
4939.777890,54627.198520,-11399.171507,-75690.235202
4939.780430,-16580.613101,27535.661042,-77988.521696
4939.782970,50926.168810,-25907.207970,-75996.673402
4939.785510,21021.848753,15396.283594,-75690.235202
4939.788050,-22946.384202,41747.615129,-78754.617194
4939.790590,42191.738694,-30792.567187,-74924.139704
4939.793130,7105.977043,7846.182985,-76762.768900
4939.795670,-17764.942608,-42191.738694,-83810.847481
4939.798210,-17468.860231,38638.750172,-81972.218286
4939.800750,53146.786636,7994.224174,-73545.167808
4939.803290,-5625.565159,-11695.253884,-76149.892501
4939.805829,-32865.143825,25611.125593,-81818.999186
4939.808369,3997.112087,-29756.278868,-79367.493593
4939.810909,-13767.830521,16432.571912,-79061.055394
4939.813449,-18209.066173,9622.677246,-83044.751983
4939.815989,15692.365970,-15988.448347,-78907.836294
4939.818529,9178.553681,20133.601622,-73698.386908
4939.821069,-10658.965565,6513.812290,-80133.589091
4939.823609,-3849.070898,-740.205942,-82891.532884
4939.826149,9030.512492,-7105.977043,-83504.409282
4939.828689,52998.745447,59364.516548,-70634.004916
4939.831229,-33457.308578,-28719.990550,-75843.454302
4939.833769,-47965.345042,-18801.230927,-88560.639569
4939.836309,33457.308578,27535.661042,-79214.274493
4939.838849,740.205942,39971.120868,-67416.403824
4939.841389,-46336.891969,-76241.212026,-86109.133975
4939.843928,8290.306550,-6661.853478,-89326.735067
4939.846468,3849.070898,43228.027013,-77375.645298
4939.849008,-33753.390955,-26943.496289,-71553.319513
4939.851548,19245.354492,37750.503042,-74004.825107
4939.854088,41007.409187,32272.979071,-73238.729609
4939.856628,-13471.748144,-21614.013506,-80593.246390
4939.859168,-10807.006753,-29904.320057,-83964.066581
4939.861708,14804.118840,2812.782580,-75537.016103
4939.864248,-11103.089130,19837.519246,-76456.330700
4939.866788,3849.070898,8586.388927,-80593.246390
4939.869333,30644.525999,-16876.695478,-78601.398095
4939.871878,19393.395680,13175.665768,-77069.207099
4939.874422,-11695.253884,-18357.107362,-78754.617194
4939.876967,11103.089130,20725.766376,-77222.426198
4939.879512,30200.402434,9918.759623,-76915.987999
4939.882057,4441.235652,-36270.091158,-79061.055394
4939.884602,-34049.473332,3997.112087,-84270.504780
4939.887146,35085.761651,-3404.947333,-78294.959896
4939.889691,95930.690083,-2072.576638,-66956.746525
4939.892236,-71651.935186,49445.756926,-78601.398095
4939.894781,-49149.674549,8882.471304,-87334.886772
4939.897326,40415.244433,-72836.264693,-81052.903688
4939.899871,64545.958142,3256.906145,-74464.482406
4939.902415,13471.748144,23242.466579,-74924.139704
4939.904960,-13915.871710,32569.061448,-76609.549800
4939.907505,45744.727216,-5329.482782,-79980.369991
4939.910050,8438.347739,-26795.455100,-78141.740796
4939.912595,-13323.706956,-40563.285622,-82585.094684
4939.915140,-1776.494261,54775.239708,-81818.999186
4939.917684,43228.027013,-14508.036463,-73238.729609
4939.920229,-5181.441594,-13323.706956,-75843.454302
4939.922774,-31976.896694,33013.185013,-81359.341888
4939.925319,-2516.700203,-52850.704259,-80899.684589
4939.927864,-18357.107362,37454.420665,-78907.836294
4939.930408,-22206.178260,18653.189738,-80440.027290
4939.932953,24426.796086,-25907.207970,-76456.330700
4939.935498,-4145.153275,15248.242405,-81052.903688
4939.938043,-4441.235652,4145.153275,-77682.083497
4939.940588,22206.178260,-3256.906145,-74770.920605
4939.943133,9770.718434,54923.280896,-73851.606007
4939.945677,-55663.486838,-10807.006753,-83197.971083
4939.948222,-23686.590144,-52998.745447,-87181.667672
4939.950767,91933.577996,25907.207970,-71553.319513
4939.953312,-27239.578666,-17024.736666,-72932.291410
4939.955857,-5625.565159,-48113.386230,-84423.723880
4939.958402,39526.997303,124650.680633,-72166.195912
4939.960946,-33309.267390,-63361.628635,-73851.606007
4939.963491,-7402.059420,-19689.478057,-91318.583362
4939.966036,25315.043216,54775.239708,-79367.493593
4939.968581,-53886.992578,-52702.663070,-76456.330700
4939.971092,-25611.125593,-444.123565,-82431.875585
4939.973603,57143.898722,18505.148550,-79214.274493
4939.976114,-13027.624579,-15100.201217,-77222.426198
4939.978626,-32421.020260,-28423.908173,-82125.437386
4939.981137,33161.226202,42783.903448,-75690.235202
4939.983648,2220.617826,-2664.741391,-77222.426198
4939.986159,-4589.276840,-32865.143825,-81972.218286
4939.988670,38342.667796,29608.237680,-76609.549800
4939.991182,-2220.617826,-30200.402434,-74464.482406
4939.993693,-12583.501014,25315.043216,-79520.712692
4939.996204,36418.132346,22058.137072,-75230.577904
4939.998715,14952.160028,-48409.468607,-78448.178995
4940.001226,-30052.361245,-4293.194464,-83810.847481
4940.003738,51814.415940,19245.354492,-76149.892501
4940.006249,5773.606348,-8586.388927,-70174.347617
4940.008760,-80238.324113,27683.702231,-87334.886772
4940.011271,7550.100608,-27979.784608,-85496.257577
4940.013782,88528.630663,-22798.343014,-72625.853210
4940.016294,-46336.891969,66766.575968,-76609.549800
4940.018805,-10214.842000,-27535.661042,-80133.589091
4940.021316,50185.962868,-34789.679274,-75537.016103
4940.023827,-40711.326810,43820.191766,-82891.532884
4940.026338,14804.118840,11695.253884,-79214.274493
4940.028850,65582.246461,-43228.027013,-76762.768900
4940.031361,18653.189738,-9326.594869,-75230.577904
4940.033872,-36122.049970,19985.560434,-82278.656485
4940.036383,33161.226202,-1924.535449,-73391.948708
4940.038894,-11843.295072,4737.318029,-75690.235202
4940.041406,-39971.120868,7105.977043,-86109.133975
4940.043917,26055.249158,-6365.771101,-79980.369991
4940.046428,-18357.107362,8438.347739,-77375.645298
4940.048939,-10362.883188,-9918.759623,-79214.274493
4940.051450,32569.061448,21614.013506,-71706.538613
4940.053962,-1036.288319,11251.130318,-78754.617194
4940.056473,-9918.759623,-26351.331535,-83657.628382
4940.058984,18653.189738,14508.036463,-80899.684589
4940.061495,1776.494261,58920.392983,-73238.729609
4940.064006,-12139.377449,-26499.372724,-77682.083497
4940.066518,7698.141797,-33309.267390,-82891.532884
4940.069029,-3256.906145,27683.702231,-75537.016103
4940.071551,-9918.759623,49445.756926,-73851.606007
4940.074074,-6661.853478,-66322.452403,-81512.560987
4940.076597,-4293.194464,15988.448347,-88560.639569
4940.079119,-18653.189738,15396.283594,-75690.235202
4940.081642,-12435.459826,-25907.207970,-73238.729609
4940.084164,13915.871710,25463.084405,-75383.797003
4940.086687,19689.478057,21317.931130,-80593.246390
4940.089209,-20133.601622,-46040.809592,-82585.094684
4940.091732,9770.718434,4885.359217,-77682.083497
4940.094255,-1924.535449,28571.949361,-74311.263306
4940.096777,-3997.112087,-3997.112087,-79980.369991
4940.099300,36270.091158,-9622.677246,-79367.493593
4940.101822,14359.995275,5329.482782,-74617.701505
4940.104345,-16728.654289,-9770.718434,-81665.780087
4940.106867,26055.249158,22354.219448,-79367.493593
4940.109390,21465.972318,-9918.759623,-78754.617194
4940.111913,-22206.178260,3108.864956,-76456.330700
4940.114435,18801.230927,28571.949361,-78601.398095
4940.116958,17912.983796,18653.189738,-76915.987999
4940.119480,-54923.280896,-7402.059420,-80133.589091
4940.122003,27979.784608,-7402.059420,-80286.808190
4940.124526,55367.404462,-12879.583391,-72012.976812
4940.127048,-7254.018232,14359.995275,-75996.673402
4940.129571,15840.407159,21465.972318,-75996.673402
4940.132093,-6069.688724,-3108.864956,-80286.808190
4940.134616,4441.235652,-28571.949361,-82738.313784
4940.137138,14359.995275,13323.706956,-78448.178995
4940.139661,-296.082377,21317.931130,-73698.386908
4940.142184,34937.720462,-48557.509795,-80593.246390
4940.144706,24426.796086,-14804.118840,-80286.808190
4940.147229,6365.771101,18357.107362,-79214.274493
4940.149751,1480.411884,1332.370696,-74464.482406
4940.152274,-5921.647536,-2812.782580,-76609.549800
4940.154796,-27239.578666,13767.830521,-82585.094684
4940.157319,13175.665768,-6809.894666,-79980.369991
4940.159842,-5625.565159,3997.112087,-76303.111601
4940.162364,-16284.530724,-4441.235652,-83657.628382
4940.164887,26795.455100,4885.359217,-75383.797003
4940.167409,6661.853478,13767.830521,-75230.577904
4940.169932,-26795.455100,9326.594869,-76762.768900
4940.172463,2812.782580,58032.145853,-76762.768900
4940.174995,-23686.590144,15248.242405,-79520.712692
4940.177526,-19097.313304,-54183.074954,-85343.038477
4940.180058,15988.448347,-1628.453072,-81818.999186
4940.182589,-15988.448347,1628.453072,-74464.482406
4940.185120,-2220.617826,-25463.084405,-77682.083497
4940.187652,46188.850781,58920.392983,-77988.521696
4940.190183,2960.823768,-11843.295072,-75077.358804
4940.192715,-14656.077652,-10510.924376,-84576.942979
4940.195246,3849.070898,20725.766376,-77069.207099
4940.197778,-11547.212695,-19097.313304,-72472.634111
4940.200309,-888.247130,-21021.848753,-82125.437386
4940.202840,10362.883188,30940.608376,-81206.122788
4940.205372,-11843.295072,-33457.308578,-80133.589091
4940.207903,-4441.235652,5921.647536,-79980.369991
4940.210435,15692.365970,26203.290347,-78448.178995
4940.212966,11547.212695,-30940.608376,-76915.987999
4940.215497,18653.189738,25611.125593,-74004.825107
4940.218029,7698.141797,-13027.624579,-77988.521696
4940.220560,-8882.471304,3552.988522,-80899.684589
4940.223092,18357.107362,19689.478057,-77375.645298
4940.225623,27387.619854,-48261.427418,-78294.959896
4940.228155,4293.194464,34493.596897,-77682.083497
4940.230686,47077.097911,37602.461854,-71859.757712
4940.233217,-48853.592172,13323.706956,-79980.369991
4940.235749,-10955.047942,-18653.189738,-87028.448573
4940.238280,77869.665098,-22798.343014,-73085.510509
4940.240812,9770.718434,37010.297100,-69255.033019
4940.243343,-62917.505070,-6809.894666,-85036.600278
4940.245875,45300.603650,-19097.313304,-83044.751983
4940.248406,-6069.688724,41895.656317,-71093.662214
4940.250937,-17616.901420,-5033.400406,-77375.645298
4940.253469,60252.763679,-22798.343014,-79980.369991
4940.256000,6661.853478,59068.434172,-79520.712692
4940.258532,-13471.748144,8438.347739,-77069.207099
4940.261063,27535.661042,-5625.565159,-70174.347617
4940.263594,-10510.924376,25611.125593,-77375.645298
4940.266126,-36714.214723,-45744.727216,-89020.296868
4940.268657,8142.265362,12139.377449,-83504.409282
4940.271189,-11399.171507,21465.972318,-75383.797003
4940.273727,4589.276840,-19837.519246,-77528.864398
4940.276265,7994.224174,14952.160028,-78294.959896
4940.278803,-9326.594869,5477.523971,-76149.892501
4940.281342,31088.649564,-9326.594869,-80286.808190
4940.283880,24722.878463,-34049.473332,-81052.903688
4940.286418,18949.272115,5329.482782,-79520.712692
4940.288956,2664.741391,61437.093186,-72472.634111
4940.291495,-2960.823768,29016.072926,-74158.044206
4940.294033,-18653.189738,-20873.807564,-80899.684589
4940.296571,-12287.418637,-42339.779882,-86109.133975
4940.299109,19541.436869,27091.537477,-78601.398095
4940.301647,12879.583391,-5625.565159,-73545.167808
4940.304186,-15396.283594,-1776.494261,-82585.094684
4940.306724,-16432.571912,27091.537477,-79827.150892
4940.309262,-3997.112087,-5921.647536,-71400.100414
4940.311800,-592.164754,5033.400406,-80746.465489
4940.314339,-2664.741391,-16136.489536,-83657.628382
4940.316877,-7550.100608,-35085.761651,-78141.740796
4940.319415,2072.576638,12435.459826,-75383.797003
4940.321953,7994.224174,29904.320057,-78141.740796
4940.324492,4589.276840,-30644.525999,-80133.589091
4940.327030,23686.590144,22946.384202,-77375.645298
4940.329568,11991.336260,-23242.466579,-75230.577904
4940.332106,-9622.677246,8290.306550,-78294.959896
4940.334644,19985.560434,14359.995275,-82585.094684
4940.337183,3701.029710,-16580.613101,-73238.729609
4940.339721,-27091.537477,42339.779882,-78141.740796
4940.342259,-56255.651592,-8438.347739,-88713.858668
4940.344797,77425.541533,-38046.585419,-79061.055394
4940.347336,109550.479416,-18209.066173,-69408.252119
4940.349874,-48113.386230,34197.514520,-70480.785816
4940.352412,-2220.617826,-18505.148550,-84270.504780
4940.354950,69727.399736,5329.482782,-77375.645298
4940.357488,-35381.844028,148.041188,-78907.836294
4940.360027,25611.125593,-7550.100608,-84270.504780
4940.362565,44856.480085,20429.683999,-73085.510509
4940.365103,-30644.525999,-46632.974346,-81359.341888
4940.367641,12287.418637,53886.992578,-76149.892501
4940.370180,54775.239708,9030.512492,-72625.853210
4940.372718,-26795.455100,-25315.043216,-82278.656485
4940.375262,-36566.173535,6217.729913,-80746.465489
4940.377807,1036.288319,3552.988522,-78907.836294
4940.380351,-592.164754,4589.276840,-76149.892501
4940.382895,-29756.278868,15248.242405,-82278.656485
4940.385440,10214.842000,-17024.736666,-77835.302597
4940.387984,17320.819043,13323.706956,-76609.549800
4940.390528,-1036.288319,10807.006753,-81818.999186
4940.393073,5329.482782,-12287.418637,-78448.178995
4940.395617,29904.320057,-26351.331535,-76456.330700
4940.398162,21465.972318,44264.315332,-73391.948708
4940.400706,-78461.829852,-12731.542202,-85189.819378
4940.403250,-25167.002028,-59216.475360,-83197.971083
4940.405795,11695.253884,-69431.317360,-85189.819378
4940.408339,38490.708984,64397.916954,-68488.937521
4940.410883,-35381.844028,-1628.453072,-75077.358804
4940.413428,-8882.471304,-2960.823768,-83657.628382
4940.415972,46484.933158,18653.189738,-80593.246390
4940.418517,-48409.468607,-39675.038491,-78601.398095
4940.421061,-12879.583391,32272.979071,-81818.999186
4940.423605,45892.768404,-14063.912898,-73085.510509
4940.426150,-17764.942608,19689.478057,-75077.358804
4940.428694,-18209.066173,-3552.988522,-82278.656485
4940.431238,27535.661042,296.082377,-77222.426198
4940.433783,23390.507767,-888.247130,-78448.178995
4940.436327,2664.741391,-7402.059420,-78907.836294
4940.438872,2368.659014,23982.672521,-74158.044206
4940.441416,36270.091158,-3108.864956,-72012.976812
4940.443960,3552.988522,-5625.565159,-77222.426198
4940.446505,-9622.677246,28275.866984,-83044.751983
4940.449049,42635.862259,-37454.420665,-76762.768900
4940.451593,46632.974346,5181.441594,-73698.386908
4940.454138,-43672.150578,22058.137072,-77682.083497
4940.456687,92081.619185,-14952.160028,-73238.729609
4940.459236,4293.194464,12435.459826,-70021.128517
4940.461785,-39378.956114,39230.914926,-77069.207099
4940.464334,49001.633360,-16432.571912,-82585.094684
4940.466883,-1184.329507,-39526.997303,-80746.465489
4940.469432,-13767.830521,46929.056723,-78754.617194
4940.471982,34049.473332,6513.812290,-69255.033019
4940.474531,13027.624579,-45892.768404,-80133.589091
4940.477080,-1332.370696,67506.781910,-84117.285680
4940.479629,45448.644839,-23390.507767,-75383.797003
4940.482178,10807.006753,-19097.313304,-76149.892501
4940.484727,-25907.207970,37158.338288,-78754.617194
4940.487276,5033.400406,-54035.033766,-76762.768900
4940.489825,-25018.960840,36714.214723,-79827.150892
4940.492375,-29756.278868,20133.601622,-84730.162079
4940.494924,9918.759623,-21021.848753,-83351.190182
4940.497473,10807.006753,13027.624579,-74924.139704
4940.500022,-8586.388927,148.041188,-71859.757712
4940.502571,46040.809592,-15840.407159,-75383.797003
4940.505120,25907.207970,1924.535449,-77222.426198
4940.507669,-70319.564490,21910.095883,-86415.572174
4940.510218,-14211.954086,5921.647536,-84576.942979
4940.512767,68395.029041,-2220.617826,-75230.577904
4940.515317,-1628.453072,-13175.665768,-72012.976812
4940.517866,-1184.329507,12139.377449,-73545.167808
4940.520415,24426.796086,10955.047942,-80286.808190
4940.522964,-21021.848753,-1776.494261,-83044.751983
4940.525513,5329.482782,-5329.482782,-82738.313784
4940.528062,7254.018232,-3108.864956,-71706.538613
4940.530611,-26055.249158,24278.754898,-76609.549800
4940.533160,5921.647536,-25315.043216,-81359.341888
4940.535710,15248.242405,36862.255912,-76762.768900
4940.538259,-17764.942608,-13027.624579,-79520.712692
4940.540808,8290.306550,-1776.494261,-79520.712692
4940.543357,16728.654289,13175.665768,-78907.836294
4940.545906,-888.247130,-24278.754898,-79214.274493
4940.548455,25463.084405,33309.267390,-73851.606007
4940.551004,36122.049970,10955.047942,-74004.825107
4940.553553,5033.400406,-24130.713709,-80899.684589
4940.556103,-5625.565159,29608.237680,-82278.656485
4940.558652,49593.798114,-26943.496289,-73698.386908
4940.561204,9178.553681,22206.178260,-73851.606007
4940.563756,-45892.768404,28868.031738,-79214.274493
4940.566308,35085.761651,-45596.686027,-79520.712692
4940.568860,35085.761651,-6365.771101,-73698.386908
4940.571413,-7698.141797,19837.519246,-81818.999186
4940.573965,48261.427418,-19837.519246,-79520.712692
4940.576517,13471.748144,-2516.700203,-74924.139704
4940.579069,-16284.530724,26795.455100,-74924.139704
4940.581622,11991.336260,36566.173535,-79980.369991
4940.584174,50482.045244,-62473.381505,-76762.768900
4940.586726,-14804.118840,30644.525999,-83657.628382
4940.589278,19097.313304,16580.613101,-78754.617194
4940.591831,25315.043216,-19393.395680,-68029.280222
4940.594383,-42339.779882,28127.825796,-77528.864398
4940.596935,-10658.965565,-19541.436869,-83964.066581
4940.599487,-296.082377,3404.947333,-83351.190182
4940.602040,-32272.979071,13175.665768,-81972.218286
4940.604592,13915.871710,-13767.830521,-78754.617194
4940.607144,5625.565159,13323.706956,-75690.235202
4940.609696,2220.617826,15544.324782,-75230.577904
4940.612249,23094.425390,-12435.459826,-78907.836294
4940.614801,80830.488866,-24574.837274,-76456.330700
4940.617353,-44560.397708,5181.441594,-81665.780087
4940.619905,-62325.340316,5033.400406,-87488.105872
4940.622457,60992.969621,15988.448347,-73698.386908
4940.625010,-4145.153275,9918.759623,-70940.443115
4940.627562,-72836.264693,-13471.748144,-87794.544071
4940.630114,39378.956114,21317.931130,-79061.055394
4940.632666,22502.260637,-11547.212695,-75843.454302
4940.635219,-72392.141128,-13175.665768,-87794.544071
4940.637771,-23982.672521,23094.425390,-81818.999186
4940.640323,51962.457128,11695.253884,-71400.100414
4940.642875,-27091.537477,-19097.313304,-80286.808190
4940.645428,-22058.137072,-9622.677246,-88713.858668
4940.647980,32272.979071,15840.407159,-75843.454302
4940.650532,3997.112087,-1924.535449,-74158.044206
4940.653084,14359.995275,-10807.006753,-78907.836294
4940.655637,37898.544230,8290.306550,-75690.235202
4940.658189,-12583.501014,-444.123565,-79061.055394
4940.660743,11399.171507,15248.242405,-80899.684589
4940.663297,33901.432144,-17172.777854,-75383.797003
4940.665852,-5773.606348,3849.070898,-80593.246390
4940.668406,-14804.118840,3404.947333,-77988.521696
4940.670960,82310.900750,-12879.583391,-69408.252119
4940.673514,-7254.018232,18505.148550,-76915.987999
4940.676069,-66026.370026,30940.608376,-85343.038477
4940.678623,19837.519246,-54479.157331,-82891.532884
4940.681177,82903.065504,6365.771101,-69867.909418
4940.683732,-3997.112087,8734.430116,-77988.521696
4940.686286,10955.047942,8882.471304,-79367.493593
4940.688840,43228.027013,15544.324782,-69714.690318
4940.691394,-19245.354492,-30792.567187,-78907.836294
4940.693949,19097.313304,37750.503042,-85343.038477
4940.696503,55219.363273,2812.782580,-78141.740796
4940.699057,6661.853478,-26647.413912,-69408.252119
4940.701611,-37306.379477,33605.349767,-77988.521696
4940.704166,-3997.112087,-25315.043216,-82431.875585
4940.706720,-18801.230927,12287.418637,-84270.504780
4940.709274,-18653.189738,4293.194464,-82585.094684
4940.711828,14804.118840,-9030.512492,-72319.415011
4940.714383,-10807.006753,16432.571912,-74004.825107
4940.716937,7254.018232,6217.729913,-83044.751983
4940.719491,8734.430116,3256.906145,-76915.987999
4940.722045,-64842.040519,16284.530724,-84883.381178
4940.724600,6513.812290,-10214.842000,-92544.336158
4940.727154,68691.111418,12583.501014,-73698.386908
4940.729708,54627.198520,-6069.688724,-64658.460031
4940.732263,-33161.226202,-888.247130,-79214.274493
4940.734817,-43968.232955,12583.501014,-84270.504780
4940.737371,-17764.942608,-148.041188,-83657.628382
4940.739925,35974.008781,1184.329507,-77375.645298
4940.742480,-21465.972318,-7402.059420,-79214.274493
4940.745034,-34789.679274,11991.336260,-79367.493593
4940.747588,28719.990550,6069.688724,-75383.797003
4940.750142,-14804.118840,-34789.679274,-80286.808190
4940.752697,-21169.889941,18357.107362,-83657.628382
4940.755251,13027.624579,20725.766376,-77682.083497
4940.757805,21465.972318,3108.864956,-74004.825107
4940.760359,8142.265362,-19097.313304,-77988.521696
4940.762916,36862.255912,10510.924376,-76915.987999
4940.765472,-3997.112087,-6661.853478,-78754.617194
4940.768029,3256.906145,14656.077652,-84576.942979
4940.770586,40563.285622,-8882.471304,-73238.729609
4940.773142,3256.906145,13175.665768,-75077.358804
4940.775699,37602.461854,-444.123565,-75843.454302
4940.778255,-1480.411884,9178.553681,-75996.673402
4940.780812,-66026.370026,18653.189738,-85189.819378
4940.783368,-7846.182985,-592.164754,-83964.066581
4940.785925,41007.409187,-23834.631332,-74464.482406
4940.788481,-56255.651592,29164.114115,-83351.190182
4940.791038,59956.681302,-31532.773129,-78141.740796
4940.793594,22206.178260,-15248.242405,-73391.948708
4940.796151,-49149.674549,39971.120868,-85189.819378
4940.798707,41599.573940,-32569.061448,-76609.549800
4940.801264,38194.626607,34937.720462,-75077.358804
4940.803820,-15840.407159,12139.377449,-80899.684589
4940.806377,28127.825796,-27091.537477,-75843.454302
4940.808933,-12731.542202,17468.860231,-75843.454302
4940.811490,-38194.626607,-27239.578666,-83197.971083
4940.814046,-13915.871710,2368.659014,-83197.971083
4940.816603,1332.370696,4441.235652,-80286.808190
4940.819159,-2072.576638,-7402.059420,-78448.178995
4940.821716,888.247130,8586.388927,-75537.016103
4940.824272,-5329.482782,9622.677246,-75996.673402
4940.826829,18209.066173,740.205942,-78907.836294
4940.829385,-56403.692780,16580.613101,-85649.476676
4940.831942,-21910.095883,-25315.043216,-87334.886772
4940.834498,80830.488866,39823.079680,-66343.870127
4940.837055,-26795.455100,-13915.871710,-73085.510509
4940.839611,-67950.905476,-23242.466579,-89326.735067
4940.842168,28275.866984,51962.457128,-85955.914876
4940.844724,55959.569215,5477.523971,-67109.965625
4940.847281,-85419.765707,-58328.228230,-87794.544071
4940.849838,25463.084405,31384.731941,-84117.285680
4940.852394,23242.466579,23686.590144,-63432.707234
4940.854951,-74760.800142,-3256.906145,-82738.313784
4940.857507,29608.237680,40563.285622,-82738.313784
4940.860064,17764.942608,-51666.374752,-75230.577904
4940.862620,-31828.855506,10955.047942,-82125.437386
4940.865178,28275.866984,22946.384202,-78448.178995
4940.867735,15692.365970,-32865.143825,-76456.330700
4940.870293,6957.935855,37898.544230,-80593.246390
4940.872851,38342.667796,-7846.182985,-77528.864398
4940.875408,1480.411884,-13175.665768,-81665.780087
4940.877966,-32717.102636,3997.112087,-84883.381178
4940.880523,-6809.894666,-2220.617826,-77988.521696
4940.883081,13915.871710,11991.336260,-73391.948708
4940.885639,39082.873738,18949.272115,-75077.358804
4940.888196,-47077.097911,9326.594869,-81818.999186
4940.890754,-72836.264693,5033.400406,-85036.600278
4940.893312,50482.045244,-34493.596897,-77835.302597
4940.895869,60992.969621,-11991.336260,-76609.549800
4940.898427,-28423.908173,39526.997303,-77375.645298
4940.900984,-15840.407159,26351.331535,-74311.263306
4940.903542,39823.079680,-14063.912898,-74464.482406
4940.906100,6809.894666,47373.180288,-78601.398095
4940.908657,3997.112087,-31680.814318,-84730.162079
4940.911215,29164.114115,-14952.160028,-75077.358804
4940.913773,-21169.889941,22058.137072,-76915.987999
4940.916330,-28275.866984,-25463.084405,-80286.808190
4940.918888,-6661.853478,34493.596897,-82585.094684
4940.921445,-2368.659014,5625.565159,-78294.959896
4940.924003,5477.523971,-24130.713709,-79061.055394
4940.926561,-11547.212695,13619.789333,-81206.122788
4940.929118,11251.130318,9918.759623,-81359.341888
4940.931676,-1628.453072,1184.329507,-77682.083497
4940.934234,-9770.718434,-14656.077652,-81972.218286
4940.936791,49001.633360,16284.530724,-77682.083497
4940.939349,-46781.015534,-66914.617157,-84423.723880
4940.941907,42487.821071,25907.207970,-78448.178995
4940.944464,23390.507767,31088.649564,-68488.937521
4940.947022,-11399.171507,-18061.024985,-74617.701505
4940.949579,41747.615129,15248.242405,-81052.903688
4940.952137,-11991.336260,-19837.519246,-82738.313784
4940.954695,-13915.871710,-3404.947333,-80746.465489
4940.957252,19985.560434,25315.043216,-74311.263306
4940.959810,4145.153275,1184.329507,-74311.263306
4940.962368,-34641.638086,33457.308578,-82278.656485
4940.964925,13027.624579,-26203.290347,-81359.341888
4940.967483,6661.853478,-3997.112087,-79673.931792
4940.970041,-1184.329507,17468.860231,-80133.589091
4940.972599,23242.466579,-19245.354492,-75537.016103
4940.975157,21762.054695,22798.343014,-73391.948708
4940.977715,7254.018232,-19985.560434,-77835.302597
4940.980273,-5477.523971,5477.523971,-77835.302597
4940.982832,24722.878463,-296.082377,-82125.437386
4940.985390,23834.631332,7994.224174,-73851.606007
4940.987948,43672.150578,1036.288319,-73851.606007
4940.990506,20873.807564,-3552.988522,-74311.263306
4940.993064,-37306.379477,9770.718434,-80593.246390
4940.995622,-8586.388927,10362.883188,-82125.437386
4940.998180,-740.205942,-1628.453072,-80593.246390
4941.000738,16284.530724,-23242.466579,-80746.465489
4941.003296,33013.185013,7550.100608,-75537.016103
4941.005854,-8142.265362,19097.313304,-72472.634111
4941.008412,8290.306550,-8290.306550,-79827.150892
4941.010970,32124.937883,45152.562462,-75690.235202
4941.013528,14063.912898,-27387.619854,-80440.027290
4941.016086,148.041188,-21762.054695,-81818.999186
4941.018644,-11695.253884,19985.560434,-78294.959896
4941.021202,-16728.654289,-36270.091158,-79673.931792
4941.023760,-26055.249158,30200.402434,-80133.589091
4941.026318,-17172.777854,16876.695478,-82891.532884
4941.028877,18653.189738,-26055.249158,-76915.987999
4941.031435,1036.288319,13175.665768,-75383.797003
4941.033993,13915.871710,6513.812290,-77528.864398
4941.036551,10066.800811,-9474.636058,-75077.358804
4941.039109,41599.573940,-18357.107362,-81512.560987
4941.041667,34345.555709,4145.153275,-75383.797003
4941.044225,-59068.434172,-10066.800811,-83657.628382
4941.046783,2812.782580,17320.819043,-83657.628382
4941.049341,19393.395680,27831.743419,-75690.235202
4941.051899,-36862.255912,-16136.489536,-71093.662214
4941.054457,-15396.283594,10807.006753,-88407.420469
4941.057015,31532.773129,18357.107362,-79520.712692
4941.059573,-36566.173535,-33309.267390,-79214.274493
4941.062131,-18949.272115,20281.642811,-80899.684589
4941.064689,29016.072926,-26055.249158,-74464.482406
4941.067247,-29164.114115,45004.521274,-79214.274493
4941.069772,-3849.070898,4293.194464,-82125.437386
4941.072296,31384.731941,-25167.002028,-76456.330700
4941.074820,-888.247130,14952.160028,-79367.493593
4941.077345,4589.276840,7846.182985,-79827.150892
4941.079869,9918.759623,16580.613101,-73238.729609
4941.082393,30496.484810,-444.123565,-72166.195912
4941.084918,6513.812290,2220.617826,-83504.409282
4941.087442,-34049.473332,296.082377,-83504.409282
4941.089966,-17024.736666,-6661.853478,-83044.751983
4941.092490,51370.292375,-1332.370696,-72779.072310
4941.095015,17764.942608,-888.247130,-73085.510509
4941.097539,-51518.333563,21910.095883,-80286.808190
4941.100063,9622.677246,-6365.771101,-81052.903688
4941.102588,78017.706287,-14656.077652,-72012.976812
4941.105112,-28868.031738,24870.919651,-73545.167808
4941.107636,-11695.253884,11103.089130,-81359.341888
4941.110161,39823.079680,12879.583391,-72012.976812
4941.112685,21465.972318,-23686.590144,-74004.825107
4941.115209,-11399.171507,-5477.523971,-83964.066581
4941.117734,40859.367998,14508.036463,-80899.684589
4941.120258,148.041188,-14359.995275,-76303.111601
4941.122782,-24278.754898,-888.247130,-78601.398095
4941.125306,2368.659014,16876.695478,-79980.369991
4941.127831,-5773.606348,9622.677246,-76609.549800
4941.130355,-26647.413912,-3404.947333,-82278.656485
4941.132879,13471.748144,-6661.853478,-79367.493593
4941.135404,13027.624579,7402.059420,-76609.549800
4941.137928,-740.205942,-5773.606348,-75230.577904
4941.140452,-5329.482782,14952.160028,-80593.246390
4941.142977,-73280.388258,14359.995275,-85343.038477
4941.145501,6217.729913,5773.606348,-81206.122788
4941.148025,66322.452403,-3404.947333,-73391.948708
4941.150550,-47817.303853,-6217.729913,-77069.207099
4941.153074,-67654.823099,4885.359217,-88100.982270
4941.155598,42487.821071,23982.672521,-71400.100414
4941.158123,-13323.706956,-26943.496289,-79367.493593
4941.160647,-44560.397708,7402.059420,-90552.487864
4941.163171,29608.237680,31680.814318,-82585.094684
4941.165695,23982.672521,-37454.420665,-73238.729609
4941.168220,-39526.997303,45744.727216,-79673.931792
4941.170752,10807.006753,-6957.935855,-80593.246390
4941.173283,26943.496289,-4885.359217,-73238.729609
4941.175815,-1332.370696,10214.842000,-81665.780087
4941.178347,14508.036463,-19097.313304,-82278.656485
4941.180878,33753.390955,20281.642811,-73698.386908
4941.183410,10658.965565,-18505.148550,-73851.606007
4941.185942,-13619.789333,-148.041188,-76915.987999
4941.188474,22206.178260,14656.077652,-83044.751983
4941.191005,40415.244433,740.205942,-74004.825107
4941.193537,66322.452403,-5033.400406,-70327.566716
4941.196069,-53146.786636,18505.148550,-81359.341888
4941.198601,-10658.965565,148.041188,-84883.381178
4941.201132,34937.720462,-15988.448347,-74004.825107
4941.203664,59216.475360,-7402.059420,-74004.825107
4941.206196,15248.242405,16136.489536,-80899.684589
4941.208728,-1776.494261,6513.812290,-79520.712692
4941.211259,19393.395680,20429.683999,-69867.909418
4941.213791,24130.713709,-45596.686027,-77682.083497
4941.216323,1184.329507,5181.441594,-84117.285680
4941.218855,27979.784608,29016.072926,-81052.903688
4941.221386,4737.318029,4293.194464,-73391.948708
4941.223918,-22946.384202,-17912.983796,-77222.426198
4941.226450,-12139.377449,23982.672521,-83351.190182
4941.228981,7846.182985,-5329.482782,-80593.246390
4941.231513,-20873.807564,-8586.388927,-77528.864398
4941.234045,-148.041188,9622.677246,-78907.836294
4941.236577,3256.906145,12583.501014,-82125.437386
4941.239108,-10807.006753,12435.459826,-76456.330700
4941.241640,-30644.525999,9030.512492,-79827.150892
4941.244172,9326.594869,-21614.013506,-82278.656485
4941.246704,60844.928432,2812.782580,-75077.358804
4941.249235,-61141.010809,-15248.242405,-78294.959896
4941.251767,-19245.354492,4145.153275,-78294.959896
4941.254299,18949.272115,5329.482782,-76915.987999
4941.256831,-32717.102636,-3256.906145,-83810.847481
4941.259362,4885.359217,15840.407159,-81665.780087
4941.261894,26203.290347,-11103.089130,-72932.291410
4941.264426,-37602.461854,19985.560434,-81052.903688
4941.266958,-2516.700203,-30496.484810,-81052.903688
4941.269489,15692.365970,36418.132346,-74464.482406
4941.272027,-25907.207970,-7402.059420,-81359.341888
4941.274564,17912.983796,-740.205942,-79214.274493
4941.277102,26499.372724,11547.212695,-76149.892501
4941.279639,7402.059420,3108.864956,-76915.987999
4941.282177,-148.041188,30348.443622,-76303.111601
4941.284714,45300.603650,-13767.830521,-74617.701505
4941.287252,1036.288319,-8882.471304,-77835.302597
4941.289789,-14952.160028,-2960.823768,-85802.695776
4941.292327,61437.093186,740.205942,-74464.482406
4941.294864,27831.743419,3404.947333,-71246.881314
4941.297402,-91933.577996,23242.466579,-85649.476676
4941.299940,82755.024316,-25463.084405,-78601.398095
4941.302477,50185.962868,3701.029710,-66650.308326
4941.305015,-85123.683330,12287.418637,-85649.476676
4941.307552,70763.688055,-2812.782580,-83197.971083
4941.310090,74612.758954,7105.977043,-69408.252119
4941.312627,-40563.285622,-38638.750172,-75843.454302
4941.315165,-5921.647536,41747.615129,-81665.780087
4941.317702,94450.278199,-11547.212695,-74617.701505
4941.320240,-20281.642811,-22354.219448,-81665.780087
4941.322777,-11695.253884,32569.061448,-81052.903688
4941.325315,26943.496289,-25759.166782,-72932.291410
4941.327852,-45596.686027,16284.530724,-81665.780087
4941.330390,-13471.748144,15100.201217,-80440.027290
4941.332927,29608.237680,-21465.972318,-77375.645298
4941.335465,-16432.571912,5033.400406,-80133.589091
4941.338002,14359.995275,7698.141797,-76149.892501
4941.340540,56403.692780,-12583.501014,-70327.566716
4941.343077,-25315.043216,10807.006753,-80133.589091
4941.345615,-97707.184344,11695.253884,-89479.954166
4941.348152,91341.413243,296.082377,-75230.577904
4941.350690,117100.580024,-11695.253884,-67722.842023
4941.353227,-133533.151937,-26055.249158,-86109.133975
4941.355765,-19689.478057,51370.292375,-83044.751983
4941.358302,66914.617157,-11251.130318,-72012.976812
4941.360840,-75204.923707,-20281.642811,-80440.027290
4941.363378,1628.453072,33605.349767,-86568.791274
4941.365915,36418.132346,-16876.695478,-76149.892501
4941.368453,-13619.789333,-2812.782580,-72932.291410
4941.370990,-48113.386230,-2368.659014,-83657.628382
4941.373532,38934.832549,25611.125593,-75537.016103
4941.376074,13027.624579,10510.924376,-77222.426198
4941.378617,-6809.894666,-34345.555709,-84576.942979
4941.381159,56699.775157,11695.253884,-76915.987999
4941.383701,1332.370696,-15988.448347,-74158.044206
4941.386243,-19985.560434,15100.201217,-82278.656485
4941.388785,22798.343014,22354.219448,-77682.083497
4941.391328,-21465.972318,-6513.812290,-78141.740796
4941.393870,-12879.583391,-10362.883188,-81512.560987
4941.396412,79794.200548,-15544.324782,-76762.768900
4941.398954,82014.818374,-19541.436869,-66037.431928
4941.401496,-57291.939911,40859.367998,-74004.825107
4941.404039,-52110.498317,-1628.453072,-88560.639569
4941.406581,38490.708984,2220.617826,-81665.780087
4941.409123,18061.024985,-3256.906145,-79980.369991
4941.411665,-31828.855506,-11399.171507,-78754.617194
4941.414207,39378.956114,20133.601622,-74004.825107
4941.416749,27387.619854,-16876.695478,-75537.016103
4941.419292,-6217.729913,11695.253884,-82431.875585
4941.421834,27831.743419,11399.171507,-74617.701505
4941.424376,-16432.571912,-28275.866984,-76762.768900
4941.426918,-32569.061448,11695.253884,-84117.285680
4941.429460,-9178.553681,19985.560434,-80133.589091
4941.432003,10658.965565,-5921.647536,-70940.443115
4941.434545,-4145.153275,0.000000,-76609.549800
4941.437087,-5329.482782,9030.512492,-83810.847481
4941.439629,-8734.430116,10362.883188,-80133.589091
4941.442171,-31828.855506,148.041188,-80286.808190
4941.444714,43672.150578,9770.718434,-80440.027290
4941.447256,-115176.044575,-10214.842000,-86722.010374
4941.449798,-7402.059420,21762.054695,-84576.942979
4941.452340,77129.459156,15396.283594,-70174.347617
4941.454882,-47373.180288,-15692.365970,-71706.538613
4941.457424,-26055.249158,-9474.636058,-90092.830565
4941.459967,67506.781910,16136.489536,-75537.016103
4941.462509,-52554.621882,15988.448347,-74617.701505
4941.465051,-34789.679274,3404.947333,-82738.313784
4941.467593,62325.340316,-15692.365970,-73238.729609
4941.470135,-46484.933158,-41303.491564,-82738.313784
4941.472678,-16284.530724,41155.450375,-86875.229473
4941.475223,54775.239708,8438.347739,-72779.072310
4941.477769,3701.029710,-27831.743419,-75383.797003
4941.480315,28423.908173,11695.253884,-78448.178995
4941.482861,26647.413912,-11103.089130,-75077.358804
4941.485407,-24574.837274,-10955.047942,-84730.162079
4941.487953,6957.935855,20577.725188,-82125.437386
4941.490499,-11547.212695,4145.153275,-75537.016103
4941.493045,-22946.384202,-11103.089130,-79520.712692
4941.495591,50482.045244,-3404.947333,-74158.044206
4941.498137,-17912.983796,13323.706956,-76915.987999
4941.500683,-27091.537477,24130.713709,-84576.942979
4941.503228,11695.253884,-12731.542202,-78754.617194
4941.505774,-4737.318029,-7254.018232,-79367.493593
4941.508320,20577.725188,18357.107362,-78448.178995
4941.510866,1924.535449,-7994.224174,-74004.825107
4941.513412,2516.700203,43524.109390,-74004.825107
4941.515958,33161.226202,-8882.471304,-81665.780087
4941.518504,22650.301825,-31532.773129,-82125.437386
4941.521050,-14804.118840,19097.313304,-78754.617194
4941.523596,-4589.276840,-16876.695478,-73085.510509
4941.526142,-19245.354492,22650.301825,-78448.178995
4941.528687,-18061.024985,14952.160028,-83044.751983
4941.531233,8882.471304,-25018.960840,-79367.493593
4941.533779,1332.370696,9622.677246,-75230.577904
4941.536325,-4293.194464,8734.430116,-80440.027290
4941.538871,-16876.695478,7105.977043,-79827.150892
4941.541417,-53886.992578,23390.507767,-81052.903688
4941.543963,1924.535449,5773.606348,-83351.190182
4941.546509,42783.903448,-16136.489536,-78448.178995
4941.549055,-9474.636058,-11843.295072,-79367.493593
4941.551601,15100.201217,9326.594869,-74311.263306
4941.554147,11843.295072,8586.388927,-73545.167808
4941.556692,-39971.120868,444.123565,-80286.808190
4941.559238,28275.866984,-1924.535449,-83351.190182
4941.561784,13323.706956,13175.665768,-75843.454302
4941.564330,-46484.933158,-14063.912898,-81359.341888
4941.566876,13767.830521,46632.974346,-74311.263306
4941.569422,6809.894666,-36566.173535,-73851.606007
4941.571968,-6513.812290,-8438.347739,-78448.178995
4941.574514,11547.212695,11103.089130,-83504.409282
4941.577062,18653.189738,-18949.272115,-80286.808190
4941.579611,15840.407159,23538.548956,-76762.768900
4941.582159,28719.990550,-14359.995275,-70940.443115
4941.584707,-24278.754898,-6513.812290,-77375.645298
4941.587256,-1036.288319,28571.949361,-85189.819378
4941.589804,-8734.430116,13175.665768,-79827.150892
4941.592353,-35381.844028,-23834.631332,-83504.409282
4941.594901,44116.274143,-7698.141797,-77069.207099
4941.597449,12731.542202,11843.295072,-69714.690318
4941.599998,-55959.569215,-3701.029710,-76915.987999
4941.602546,-16876.695478,14211.954086,-86415.572174
4941.605095,51814.415940,8586.388927,-80133.589091
4941.607643,-39378.956114,-6365.771101,-78448.178995
4941.610191,29756.278868,-29756.278868,-80286.808190
4941.612740,43968.232955,10362.883188,-71093.662214
4941.615288,-21910.095883,37158.338288,-82431.875585
4941.617837,24278.754898,-8882.471304,-77069.207099
4941.620385,8882.471304,-1628.453072,-74004.825107
4941.622933,-47225.139100,-17764.942608,-85343.038477
4941.625482,-20281.642811,14508.036463,-83044.751983
4941.628030,-9474.636058,10955.047942,-75537.016103
4941.630578,2072.576638,6217.729913,-78907.836294
4941.633127,888.247130,-444.123565,-76456.330700
4941.635675,27683.702231,-740.205942,-77528.864398
4941.638224,57736.063476,-9474.636058,-76456.330700
4941.640772,-20577.725188,-13323.706956,-79520.712692
4941.643320,-53886.992578,13619.789333,-87334.886772
4941.645869,47817.303853,17320.819043,-76762.768900
4941.648417,51370.292375,-14359.995275,-68642.156621
4941.650966,-64842.040519,8290.306550,-76456.330700
4941.653514,-6217.729913,14508.036463,-87641.324971
4941.656062,37454.420665,-18357.107362,-77375.645298
4941.658611,-10214.842000,10955.047942,-74158.044206
4941.661159,-33605.349767,6217.729913,-79520.712692
4941.663707,22798.343014,16284.530724,-72012.976812
4941.666256,-12139.377449,-42783.903448,-80286.808190
4941.668804,-12583.501014,22502.260637,-87334.886772
4941.671353,35529.885216,7698.141797,-77375.645298
4941.673901,9770.718434,-22798.343014,-74617.701505
4941.676449,35677.926404,19097.313304,-76303.111601
4941.679000,4737.318029,-9030.512492,-77222.426198
4941.681551,-20725.766376,13471.748144,-79673.931792
4941.684101,30200.402434,9178.553681,-82125.437386
4941.686652,7254.018232,-33161.226202,-82431.875585
4941.689203,16432.571912,-11991.336260,-77375.645298
4941.691753,35974.008781,12435.459826,-68335.718422
4941.694304,-51814.415940,22206.178260,-77222.426198
4941.696855,-62177.299128,4293.194464,-91625.021561
4941.699405,57588.022288,-5033.400406,-84270.504780
4941.701956,26943.496289,-10214.842000,-73085.510509
4941.704507,-19541.436869,592.164754,-76609.549800
4941.707057,44560.397708,-22206.178260,-74770.920605
4941.709608,1036.288319,42191.738694,-74617.701505
4941.712158,-1776.494261,13323.706956,-83351.190182
4941.714709,50926.168810,-26203.290347,-76609.549800
4941.717260,12731.542202,1332.370696,-74617.701505
4941.719810,-43968.232955,-23390.507767,-81972.218286
4941.722361,-20577.725188,20429.683999,-79520.712692
4941.724912,-7698.141797,24426.796086,-76609.549800
4941.727462,-2220.617826,-7254.018232,-82431.875585
4941.730013,15248.242405,-11695.253884,-78601.398095
4941.732564,18505.148550,3256.906145,-72625.853210
4941.735114,-11103.089130,5921.647536,-76456.330700
4941.737665,-68839.152606,19097.313304,-86568.791274
4941.740216,35381.844028,14952.160028,-80593.246390
4941.742766,55071.322085,-19985.560434,-70174.347617
4941.745317,40563.285622,-19245.354492,-69561.471218
4941.747868,16136.489536,592.164754,-76915.987999
4941.750418,-21317.931130,3404.947333,-74924.139704
4941.752969,7698.141797,-148.041188,-79214.274493
4941.755520,11103.089130,24278.754898,-76303.111601
4941.758070,-22206.178260,-9030.512492,-82585.094684
4941.760621,-6661.853478,888.247130,-79214.274493
4941.763171,10658.965565,-27387.619854,-75690.235202
4941.765722,-20133.601622,23686.590144,-78294.959896
4941.768273,17320.819043,29756.278868,-77528.864398
4941.770823,38786.791361,-44264.315332,-76762.768900
4941.773374,24574.837274,14656.077652,-78601.398095
4941.775925,19393.395680,-18209.066173,-75077.358804
4941.778475,-23982.672521,-16136.489536,-81665.780087
4941.781028,1924.535449,31976.896694,-80899.684589
4941.783580,-11251.130318,-13323.706956,-80133.589091
4941.786132,49889.880491,-5921.647536,-73851.606007
4941.788684,2072.576638,12731.542202,-75996.673402
4941.791236,-37898.544230,8290.306550,-80593.246390
4941.793788,16580.613101,9030.512492,-78141.740796
4941.796341,-23982.672521,-888.247130,-78907.836294
4941.798893,15396.283594,10214.842000,-86415.572174
4941.801445,23242.466579,12139.377449,-72625.853210
4941.803997,27683.702231,-17320.819043,-70327.566716
4941.806549,12435.459826,-13767.830521,-79214.274493
4941.809101,26203.290347,8438.347739,-83044.751983
4941.811653,9770.718434,-5181.441594,-75537.016103
4941.814206,-7994.224174,6513.812290,-73085.510509
4941.816758,-15248.242405,8290.306550,-80746.465489
4941.819310,-13323.706956,2516.700203,-83044.751983
4941.821862,-18653.189738,-3256.906145,-82738.313784
4941.824414,3108.864956,-888.247130,-79980.369991
4941.826966,5329.482782,4885.359217,-73545.167808
4941.829519,32421.020260,7105.977043,-73391.948708
4941.832071,0.000000,1036.288319,-77835.302597
4941.834623,-61733.175563,-4885.359217,-83197.971083
4941.837175,-49889.880491,8438.347739,-91931.459760
4941.839727,108366.149909,16728.654289,-70787.224015
4941.842279,-62029.257940,-20577.725188,-72472.634111
4941.844832,-29460.196492,16432.571912,-80593.246390
4941.847384,60104.722490,14211.954086,-76149.892501
4941.849936,-56995.857534,-5033.400406,-84423.723880
4941.852488,-13619.789333,9326.594869,-85343.038477
4941.855040,52702.663070,-51370.292375,-71246.881314
4941.857592,-56847.816346,47817.303853,-76303.111601
4941.860145,-26055.249158,14656.077652,-81818.999186
4941.862697,41451.532752,1924.535449,-77682.083497
4941.865249,36418.132346,-19097.313304,-78448.178995
4941.867801,-7254.018232,5477.523971,-81665.780087
4941.870353,26203.290347,24130.713709,-75077.358804
4941.872905,32865.143825,-17912.983796,-73238.729609
4941.875457,-25759.166782,-888.247130,-75230.577904
4941.878010,11103.089130,24278.754898,-83197.971083
4941.880562,-49001.633360,-9622.677246,-88407.420469
4941.883115,41155.450375,-25907.207970,-77375.645298
4941.885668,55219.363273,21021.848753,-63739.145434
4941.888221,-102888.625938,3849.070898,-79673.931792
4941.890773,-9030.512492,15544.324782,-92084.678860
4941.893326,78017.706287,3552.988522,-81512.560987
4941.895879,-2812.782580,-22354.219448,-74311.263306
4941.898432,-40563.285622,-46929.056723,-86415.572174
4941.900985,42487.821071,56699.775157,-75843.454302
4941.903538,22502.260637,9178.553681,-71400.100414
4941.906091,-6069.688724,0.000000,-77835.302597
4941.908644,10066.800811,18061.024985,-78754.617194
4941.911197,-30940.608376,-54627.198520,-83964.066581
4941.913750,-43228.027013,29904.320057,-84270.504780
4941.916303,888.247130,21614.013506,-77682.083497
4941.918856,2368.659014,-11843.295072,-76149.892501
4941.921408,14656.077652,-6661.853478,-77835.302597
4941.923961,-6809.894666,17616.901420,-78294.959896
4941.926514,-43820.191766,8438.347739,-78448.178995
4941.929067,51074.209998,-15840.407159,-83964.066581
4941.931620,58624.310606,-5329.482782,-73545.167808
4941.934173,-87196.259968,-10955.047942,-78907.836294
4941.936726,-88380.589475,37158.338288,-89786.392366
4941.939279,51518.333563,15544.324782,-79827.150892
4941.941832,3552.988522,-17468.860231,-71553.319513
4941.944385,-39082.873738,-10955.047942,-81972.218286
4941.946938,47965.345042,10362.883188,-78601.398095
4941.949491,33013.185013,-43672.150578,-74464.482406
4941.952043,-57143.898722,57291.939911,-77682.083497
4941.954596,-18357.107362,10214.842000,-80133.589091
4941.957149,38786.791361,-10362.883188,-74617.701505
4941.959702,-1332.370696,3404.947333,-85189.819378
4941.962255,7105.977043,-29904.320057,-82585.094684
4941.964808,43672.150578,23242.466579,-69867.909418
4941.967361,14804.118840,-6069.688724,-71246.881314
4941.969914,-35974.008781,-5477.523971,-81206.122788
4941.972467,17320.819043,26203.290347,-85649.476676
4941.975020,28868.031738,-21762.054695,-80440.027290
4941.977573,740.205942,12287.418637,-71400.100414
4941.980126,-18209.066173,5033.400406,-73851.606007
4941.982678,-34345.555709,17616.901420,-80286.808190
4941.985232,-7994.224174,10510.924376,-84576.942979
4941.987786,36122.049970,-7402.059420,-81512.560987
4941.990340,29016.072926,-9918.759623,-79214.274493
4941.992894,-6217.729913,-38194.626607,-78448.178995
4941.995448,7105.977043,53294.827824,-74158.044206
4941.998002,44116.274143,3404.947333,-72779.072310
4942.000556,6513.812290,-8438.347739,-79061.055394
4942.003110,-9474.636058,11251.130318,-81206.122788
4942.005664,-1628.453072,-36566.173535,-80746.465489
4942.008217,-21021.848753,8290.306550,-78754.617194
4942.010771,-35085.761651,26203.290347,-80286.808190
4942.013325,16580.613101,-3849.070898,-78448.178995
4942.015879,19393.395680,-5033.400406,-79980.369991
4942.018433,-25018.960840,9622.677246,-80133.589091
4942.020987,5921.647536,-12435.459826,-76915.987999
4942.023541,60844.928432,3552.988522,-76149.892501
4942.026095,-109550.479416,2812.782580,-89173.515967
4942.028649,24278.754898,14211.954086,-84576.942979
4942.031203,76093.170838,-7402.059420,-70021.128517
4942.033756,-87936.465910,-444.123565,-79367.493593
4942.036310,50630.086433,7994.224174,-85189.819378
4942.038864,61437.093186,-6809.894666,-77375.645298
4942.041418,-67062.658345,28571.949361,-77682.083497
4942.043972,-28571.949361,-28275.866984,-85036.600278
4942.046526,57143.898722,29164.114115,-70327.566716
4942.049080,-50334.004056,-9030.512492,-79061.055394
4942.051634,-12731.542202,-2072.576638,-86262.353075
4942.054188,50037.921679,21317.931130,-75996.673402
4942.056742,-8142.265362,-24574.837274,-80133.589091
4942.059295,24722.878463,22650.301825,-76915.987999
4942.061849,35825.967593,-13915.871710,-70480.785816
4942.064403,-34789.679274,-5181.441594,-80133.589091
4942.066957,-4145.153275,24722.878463,-85496.257577
4942.069511,11251.130318,-5625.565159,-82585.094684
4942.072065,18505.148550,-15988.448347,-72012.976812
4942.074619,-17320.819043,20133.601622,-72625.853210
4942.077173,3849.070898,14804.118840,-79061.055394
4942.079727,14508.036463,-5181.441594,-79673.931792
4942.082281,-11695.253884,4145.153275,-85955.914876
4942.084834,16136.489536,15692.365970,-77682.083497
4942.087389,30792.567187,-40859.367998,-72472.634111
4942.089943,-16432.571912,32272.979071,-77528.864398
