#time,accel_x,accel_y,accel_z
2875.229067,-5181.441594,-2664.741391,75690.235202
2875.231614,-3404.947333,888.247130,79520.712692
2875.234160,-444.123565,3552.988522,81359.341888
2875.236706,592.164754,6513.812290,81359.341888
2875.239253,-3552.988522,5329.482782,77835.302597
2875.241799,-5181.441594,148.041188,75843.454302
2875.244345,-3552.988522,1332.370696,79520.712692
2875.246891,1184.329507,-148.041188,83044.751983
2875.249438,1628.453072,-1036.288319,81052.903688
2875.251984,-2220.617826,148.041188,76609.549800
2875.254530,-6069.688724,3552.988522,75690.235202
2875.257076,-2516.700203,3552.988522,79061.055394
2875.259623,740.205942,2812.782580,82431.875585
2875.262169,1628.453072,296.082377,81359.341888
2875.264715,-2368.659014,-888.247130,76762.768900
2875.267261,-5625.565159,-148.041188,75537.016103
2875.269808,-3701.029710,444.123565,79673.931792
2875.272354,1480.411884,-740.205942,82891.532884
2875.274900,-592.164754,5477.523971,80133.589091
2875.277446,-5625.565159,6661.853478,75996.673402
2875.279993,-6513.812290,4885.359217,76609.549800
2875.282539,-2516.700203,-1184.329507,80440.027290
2875.285085,148.041188,-47225.139100,85496.257577
2875.287632,-7550.100608,52702.663070,79214.274493
2875.290178,-7846.182985,7254.018232,73851.606007
2875.292724,30792.567187,18209.066173,75843.454302
2875.295270,-7550.100608,9178.553681,76303.111601
2875.297817,10510.924376,-33901.432144,84270.504780
2875.300363,3552.988522,-4293.194464,82278.656485
2875.302909,-19985.560434,5921.647536,74311.263306
2875.305455,2664.741391,-10066.800811,76609.549800
2875.308002,5477.523971,-3552.988522,79673.931792
2875.310548,7846.182985,-10510.924376,81972.218286
2875.313094,148.041188,3701.029710,80746.465489
2875.315640,-6365.771101,4441.235652,77375.645298
2875.318187,0.000000,8734.430116,76609.549800
2875.320733,-11251.130318,3552.988522,79061.055394
2875.323279,5625.565159,7550.100608,82278.656485
2875.325826,-1332.370696,2960.823768,79980.369991
2875.328372,-3997.112087,6957.935855,77682.083497
2875.330912,-2368.659014,14508.036463,77528.864398
2875.333451,-10066.800811,3404.947333,77988.521696
2875.335991,-148.041188,6217.729913,84270.504780
2875.338531,4293.194464,-9030.512492,78754.617194
2875.341071,7105.977043,40415.244433,74924.139704
2875.343611,11843.295072,21021.848753,73851.606007
2875.346151,11695.253884,-76241.212026,83197.971083
2875.348690,-10362.883188,70615.646867,79061.055394
2875.351230,-2664.741391,-52110.498317,82431.875585
2875.353770,-3849.070898,4737.318029,78601.398095
2875.356310,-27683.702231,82903.065504,73851.606007
2875.358850,15544.324782,-74908.841330,81359.341888
2875.361389,35974.008781,-47669.262665,84117.285680
2875.363929,-23834.631332,40859.367998,75996.673402
2875.366469,5625.565159,-38786.791361,78907.836294
2875.369009,-13619.789333,52258.539505,75996.673402
2875.371549,-13471.748144,888.247130,79061.055394
2875.374089,23094.425390,-4885.359217,83044.751983
2875.376628,-10510.924376,35974.008781,76609.549800
2875.379168,1036.288319,11991.336260,78448.178995
2875.381708,-7550.100608,3849.070898,77375.645298
2875.384248,-1924.535449,-8734.430116,79827.150892
2875.386788,13175.665768,-10066.800811,83044.751983
2875.389327,5181.441594,12583.501014,79367.493593
2875.391867,1924.535449,1480.411884,76762.768900
2875.394407,-3108.864956,7846.182985,74617.701505
2875.396947,-2220.617826,6809.894666,79827.150892
2875.399487,10658.965565,-2960.823768,84117.285680
2875.402027,-2072.576638,-11991.336260,79827.150892
2875.404566,-7994.224174,-15100.201217,76149.892501
2875.407106,1628.453072,2516.700203,79980.369991
2875.409646,-16136.489536,13915.871710,78601.398095
2875.412186,3256.906145,-740.205942,82891.532884
2875.414726,-3404.947333,-2664.741391,77222.426198
2875.417266,-12583.501014,-592.164754,76303.111601
2875.419805,148.041188,-3552.988522,81972.218286
2875.422345,-8586.388927,-592.164754,79520.712692
2875.424885,-888.247130,-592.164754,79061.055394
2875.427425,1332.370696,-2812.782580,79520.712692
2875.429965,-8290.306550,1628.453072,78141.740796
2875.432496,-592.164754,-5033.400406,77682.083497
2875.435031,-3108.864956,592.164754,80899.684589
2875.437565,7402.059420,7254.018232,78754.617194
2875.440099,-1036.288319,2368.659014,80746.465489
2875.442634,-18357.107362,6513.812290,77222.426198
2875.445168,-9474.636058,38786.791361,75077.358804
2875.447703,-6957.935855,-26351.331535,83044.751983
2875.450237,3997.112087,15396.283594,80286.808190
2875.452771,-17616.901420,11547.212695,76915.987999
2875.455306,-5181.441594,-79053.994606,86415.572174
2875.457840,-26795.455100,50185.962868,75537.016103
2875.460375,-21021.848753,24278.754898,74924.139704
2875.462909,36418.132346,10066.800811,86415.572174
2875.465443,-28868.031738,23094.425390,78907.836294
2875.467978,18653.189738,-41007.409187,82125.437386
2875.470512,6365.771101,-6513.812290,79367.493593
2875.473046,-17764.942608,3256.906145,79214.274493
2875.475581,-1776.494261,-18061.024985,80593.246390
2875.478115,8290.306550,-3552.988522,78448.178995
2875.480650,-6809.894666,-7254.018232,77835.302597
2875.483184,-4885.359217,-740.205942,79673.931792
2875.485718,-5625.565159,10658.965565,80746.465489
2875.488253,8882.471304,-13175.665768,81818.999186
2875.490787,-7994.224174,-4885.359217,76762.768900
2875.493322,-2664.741391,2516.700203,76456.330700
2875.495856,-5625.565159,6513.812290,79214.274493
2875.498390,-888.247130,-2664.741391,83044.751983
2875.500925,5773.606348,-2664.741391,79827.150892
2875.503459,-12139.377449,12583.501014,74924.139704
2875.505993,2516.700203,11695.253884,79061.055394
2875.508528,-3256.906145,-740.205942,79827.150892
2875.511062,444.123565,17024.736666,79367.493593
2875.513597,888.247130,-10510.924376,79214.274493
2875.516131,-3404.947333,4885.359217,79367.493593
2875.518665,-6661.853478,740.205942,78907.836294
2875.521200,-2664.741391,5625.565159,77682.083497
2875.523734,-2812.782580,20133.601622,80440.027290
2875.526268,0.000000,12583.501014,79367.493593
2875.528803,-2220.617826,148.041188,77835.302597
2875.531337,-4589.276840,18209.066173,78601.398095
2875.533868,-13619.789333,-19985.560434,83044.751983
2875.536398,1332.370696,-13323.706956,80286.808190
2875.538929,4293.194464,-15988.448347,80133.589091
2875.541460,3404.947333,-37602.461854,78907.836294
2875.543990,-29904.320057,77425.541533,75383.797003
2875.546521,-1036.288319,-20281.642811,81052.903688
2875.549051,-4293.194464,12435.459826,79520.712692
2875.551582,-14211.954086,36418.132346,78907.836294
2875.554112,19689.478057,-81718.735997,82125.437386
2875.556643,-32124.937883,98891.513851,71246.881314
2875.559174,-13471.748144,23242.466579,82125.437386
2875.561704,24722.878463,7846.182985,80746.465489
2875.564235,-24870.919651,52554.621882,76762.768900
2875.566765,3552.988522,20281.642811,79520.712692
2875.569296,9326.594869,-5773.606348,78294.959896
2875.571826,-10955.047942,14211.954086,76915.987999
2875.574357,16432.571912,8882.471304,81052.903688
2875.576888,-15840.407159,-5625.565159,78448.178995
2875.579418,5477.523971,-2664.741391,79980.369991
2875.581949,3552.988522,6365.771101,79061.055394
2875.584479,-9326.594869,14952.160028,78907.836294
2875.587010,2812.782580,11103.089130,79061.055394
2875.589541,-6217.729913,4589.276840,76303.111601
2875.592071,740.205942,16728.654289,79520.712692
2875.594602,-1776.494261,-14359.995275,80440.027290
2875.597132,-6217.729913,-4441.235652,80286.808190
2875.599663,6661.853478,-2516.700203,79061.055394
2875.602193,-1184.329507,7105.977043,78294.959896
2875.604724,6365.771101,6069.688724,80133.589091
2875.607255,-4737.318029,-5625.565159,76149.892501
2875.609785,4293.194464,-4589.276840,79061.055394
2875.612316,-1924.535449,-11103.089130,81206.122788
2875.614846,1924.535449,-0.000000,80899.684589
2875.617377,-2072.576638,-11251.130318,77375.645298
2875.619907,-4589.276840,7402.059420,76762.768900
2875.622438,-740.205942,-2960.823768,82278.656485
2875.624969,3701.029710,-11695.253884,83657.628382
2875.627499,-444.123565,740.205942,76303.111601
2875.630030,-11843.295072,-17320.819043,81052.903688
2875.632560,-7105.977043,-20429.683999,79214.274493
2875.635090,5329.482782,-40267.203245,82278.656485
2875.637619,-12583.501014,-12139.377449,80440.027290
2875.640148,-23242.466579,21169.889941,74464.482406
2875.642678,6809.894666,-4293.194464,80593.246390
2875.645207,-17172.777854,21762.054695,76609.549800
2875.647736,-8142.265362,-20133.601622,79980.369991
2875.650266,11843.295072,-7254.018232,80593.246390
2875.652795,-35677.926404,34493.596897,76456.330700
2875.655324,-20873.807564,-10807.006753,81972.218286
2875.657854,-2516.700203,10214.842000,78294.959896
2875.660383,-14508.036463,17024.736666,78601.398095
2875.662912,2960.823768,888.247130,80440.027290
2875.665442,-4145.153275,-10214.842000,79673.931792
2875.667971,-1036.288319,-14804.118840,77682.083497
2875.670500,1036.288319,-8438.347739,78448.178995
2875.673030,2072.576638,4589.276840,80593.246390
2875.675559,-3404.947333,1332.370696,79980.369991
2875.678088,0.000000,-1776.494261,78907.836294
2875.680618,-4145.153275,-11843.295072,78294.959896
2875.683147,-4885.359217,-6365.771101,78294.959896
2875.685676,-2812.782580,10955.047942,80440.027290
2875.688206,1924.535449,-8586.388927,82125.437386
2875.690735,0.000000,4441.235652,78448.178995
2875.693264,-3108.864956,6661.853478,76456.330700
2875.695794,-4293.194464,6957.935855,77375.645298
2875.698323,-3256.906145,-7254.018232,81818.999186
2875.700852,888.247130,20133.601622,81359.341888
2875.703382,-4589.276840,-8734.430116,77222.426198
2875.705911,1036.288319,-296.082377,79827.150892
2875.708440,-10807.006753,10955.047942,78294.959896
2875.710970,-1628.453072,1776.494261,79214.274493
2875.713499,1184.329507,17468.860231,79827.150892
2875.716028,-10658.965565,5921.647536,79061.055394
2875.718558,0.000000,2516.700203,75843.454302
2875.721087,-6513.812290,17024.736666,78294.959896
2875.723616,1924.535449,-444.123565,82125.437386
2875.726146,-6217.729913,-28868.031738,83964.066581
2875.728675,-15840.407159,8586.388927,77069.207099
2875.731204,-27239.578666,64990.081708,76149.892501
2875.733734,-14359.995275,-9918.759623,80746.465489
2875.736261,-3849.070898,13323.706956,79367.493593
2875.738789,-16284.530724,31532.773129,77069.207099
2875.741317,-2368.659014,33753.390955,79520.712692
2875.743844,7550.100608,-37602.461854,80440.027290
2875.746372,-5921.647536,-7402.059420,79673.931792
2875.748900,-444.123565,11399.171507,76609.549800
2875.751427,-3256.906145,-8438.347739,82891.532884
2875.753955,-5625.565159,10510.924376,79214.274493
2875.756483,296.082377,8290.306550,78141.740796
2875.759010,-8734.430116,16136.489536,77835.302597
2875.761538,1480.411884,18949.272115,78448.178995
2875.764066,1924.535449,-7105.977043,79061.055394
2875.766593,2664.741391,1480.411884,78294.959896
2875.769121,-4737.318029,-444.123565,79827.150892
2875.771649,-1628.453072,19393.395680,78907.836294
2875.774176,-3849.070898,2368.659014,78601.398095
2875.776704,-3701.029710,5477.523971,77988.521696
2875.779232,-3256.906145,16136.489536,79827.150892
2875.781759,-592.164754,-15544.324782,79673.931792
2875.784287,-10214.842000,-10955.047942,79520.712692
2875.786815,2220.617826,6069.688724,79673.931792
2875.789342,-10066.800811,6809.894666,78294.959896
2875.791870,0.000000,9918.759623,79673.931792
2875.794398,-10955.047942,-6513.812290,76915.987999
2875.796925,-3701.029710,-1036.288319,79980.369991
2875.799453,148.041188,-1480.411884,82278.656485
2875.801981,-888.247130,-9918.759623,80133.589091
2875.804508,-1036.288319,-2368.659014,77069.207099
2875.807036,-6217.729913,-2368.659014,77375.645298
2875.809564,1332.370696,-6217.729913,81665.780087
2875.812091,-296.082377,1776.494261,78294.959896
2875.814619,-3552.988522,-16728.654289,81818.999186
2875.817147,3997.112087,31384.731941,75690.235202
2875.819674,3849.070898,57736.063476,74770.920605
2875.822202,15988.448347,-41895.656317,82891.532884
2875.824730,15396.283594,61733.175563,76609.549800
2875.827257,9622.677246,-62325.340316,78294.959896
2875.829785,23094.425390,-21910.095883,82278.656485
2875.832313,-13175.665768,-6217.729913,75843.454302
2875.834840,5625.565159,-28719.990550,78907.836294
2875.837369,12879.583391,-46188.850781,85189.819378
2875.839897,-15544.324782,6957.935855,73391.948708
2875.842426,-2664.741391,-29164.114115,81206.122788
2875.844954,-21021.848753,13619.789333,78601.398095
2875.847483,-9622.677246,-22206.178260,79827.150892
2875.850011,-1184.329507,8882.471304,79214.274493
2875.852540,9622.677246,-3404.947333,77528.864398
2875.855068,-8882.471304,7698.141797,76149.892501
2875.857596,-2664.741391,3701.029710,78294.959896
2875.860125,5329.482782,2072.576638,81665.780087
2875.862653,-3997.112087,1332.370696,81206.122788
2875.865182,1628.453072,-9178.553681,77835.302597
2875.867710,-2960.823768,11103.089130,76762.768900
2875.870239,-1332.370696,-10658.965565,79367.493593
2875.872767,-5181.441594,-11399.171507,81206.122788
2875.875296,-2368.659014,11843.295072,80133.589091
2875.877824,-8586.388927,13027.624579,77069.207099
2875.880353,1036.288319,9770.718434,78601.398095
2875.882881,-3849.070898,15840.407159,77528.864398
2875.885409,-9918.759623,18061.024985,77682.083497
2875.887938,8882.471304,-6809.894666,83657.628382
2875.890466,-3849.070898,-2664.741391,80133.589091
2875.892995,-5477.523971,-1776.494261,76762.768900
2875.895523,1036.288319,8734.430116,77222.426198
2875.898052,-7994.224174,20133.601622,79827.150892
2875.900580,6217.729913,1776.494261,81206.122788
2875.903109,-4737.318029,-8586.388927,81359.341888
2875.905637,8290.306550,27091.537477,75843.454302
2875.908166,1776.494261,38194.626607,74924.139704
2875.910694,6513.812290,45596.686027,77988.521696
2875.913222,16876.695478,-91933.577996,85802.695776
2875.915751,6513.812290,41451.532752,77375.645298
2875.918279,-21910.095883,-22650.301825,77988.521696
2875.920808,15840.407159,40711.326810,77375.645298
2875.923336,0.000000,-45448.644839,77375.645298
2875.925865,11695.253884,20281.642811,82431.875585
2875.928393,-21614.013506,10214.842000,78601.398095
2875.930922,-9030.512492,-2220.617826,79980.369991
2875.933450,-17468.860231,47373.180288,77682.083497
2875.935979,-10214.842000,3997.112087,78754.617194
2875.938507,5329.482782,11251.130318,79367.493593
2875.941035,-13323.706956,13175.665768,79827.150892
2875.943563,-592.164754,-888.247130,76762.768900
2875.946091,-3701.029710,3701.029710,79367.493593
2875.948619,-7105.977043,16876.695478,82278.656485
2875.951147,-1924.535449,17320.819043,79520.712692
2875.953675,-3256.906145,11695.253884,77375.645298
2875.956203,-9770.718434,-5033.400406,76456.330700
2875.958731,5033.400406,17912.983796,80746.465489
2875.961259,-8586.388927,-11399.171507,80746.465489
2875.963787,-5033.400406,-4737.318029,80746.465489
2875.966315,2812.782580,2664.741391,77988.521696
2875.968843,-10955.047942,-3256.906145,77375.645298
2875.971372,7105.977043,10807.006753,81359.341888
2875.973900,-4885.359217,-7846.182985,78754.617194
2875.976428,5181.441594,-5477.523971,80440.027290
2875.978956,-4737.318029,592.164754,79214.274493
2875.981484,-740.205942,-9622.677246,79520.712692
2875.984012,-5625.565159,6661.853478,77835.302597
2875.986540,-740.205942,-13767.830521,78601.398095
2875.989068,5625.565159,-2960.823768,82431.875585
2875.991596,-1332.370696,-5477.523971,79214.274493
2875.994124,-10066.800811,-18061.024985,78601.398095
2875.996652,-148.041188,-592.164754,78601.398095
2875.999180,8882.471304,-42487.821071,83197.971083
2876.001708,-2960.823768,-33901.432144,80746.465489
2876.004236,-18209.066173,33753.390955,72779.072310
2876.006764,9474.636058,-7698.141797,80133.589091
2876.009293,-6661.853478,15692.365970,79061.055394
2876.011821,592.164754,-4589.276840,79061.055394
2876.014349,18505.148550,-71355.852809,83657.628382
2876.016877,-48113.386230,26351.331535,77835.302597
2876.019405,-7698.141797,-15248.242405,77222.426198
2876.021933,26055.249158,-19393.395680,79520.712692
2876.024461,-17764.942608,23686.590144,77222.426198
2876.026989,-2516.700203,-4737.318029,79520.712692
2876.029517,2812.782580,888.247130,79520.712692
2876.032045,-11843.295072,5181.441594,77682.083497
2876.034573,-9474.636058,-9918.759623,77835.302597
2876.037101,740.205942,14508.036463,81359.341888
2876.039628,3552.988522,-11695.253884,81512.560987
2876.042155,-4145.153275,-13175.665768,76303.111601
2876.044682,-3404.947333,8290.306550,78448.178995
2876.047209,2812.782580,-5329.482782,80746.465489
2876.049736,-1184.329507,-7994.224174,80286.808190
2876.052262,-2220.617826,9030.512492,79061.055394
2876.054789,-9178.553681,10807.006753,76303.111601
2876.057316,5625.565159,16136.489536,79214.274493
2876.059843,-3701.029710,4145.153275,77682.083497
2876.062370,-1628.453072,19245.354492,79367.493593
2876.064897,5625.565159,-11991.336260,80440.027290
2876.067424,-1924.535449,-2516.700203,79520.712692
2876.069951,-5625.565159,6069.688724,78907.836294
2876.072477,-5921.647536,4885.359217,75996.673402
2876.075004,-6069.688724,8142.265362,80133.589091
2876.077531,-2960.823768,9770.718434,77988.521696
2876.080058,-10066.800811,2072.576638,79061.055394
2876.082585,10510.924376,31828.855506,76456.330700
2876.085112,3256.906145,49001.633360,78754.617194
2876.087639,18061.024985,4737.318029,77682.083497
2876.090166,22798.343014,-23094.425390,78141.740796
2876.092692,-3404.947333,1628.453072,77835.302597
2876.095219,7846.182985,-10066.800811,80286.808190
2876.097746,4589.276840,-24722.878463,79980.369991
2876.100273,-10807.006753,37306.379477,77222.426198
2876.102800,-11695.253884,15544.324782,79520.712692
2876.105327,-8142.265362,4441.235652,79214.274493
2876.107854,-5477.523971,28423.908173,77069.207099
2876.110380,-9474.636058,7994.224174,79520.712692
2876.112907,2812.782580,15692.365970,79980.369991
2876.115434,-9474.636058,6957.935855,76762.768900
2876.117961,-2960.823768,-10807.006753,78754.617194
2876.120488,-3552.988522,12583.501014,79061.055394
2876.123015,-3997.112087,10362.883188,81052.903688
2876.125542,296.082377,20133.601622,79673.931792
2876.128069,-6809.894666,-1332.370696,77682.083497
2876.130595,-10066.800811,6513.812290,77222.426198
2876.133122,3849.070898,11991.336260,81052.903688
2876.135649,-10510.924376,-9326.594869,79980.369991
2876.138176,-5625.565159,-888.247130,80899.684589
2876.140704,4589.276840,-6365.771101,76915.987999
2876.143232,-6957.935855,740.205942,77835.302597
2876.145760,2812.782580,9918.759623,80440.027290
2876.148288,-5921.647536,-4737.318029,77528.864398
2876.150817,5773.606348,-2072.576638,81359.341888
2876.153345,-6217.729913,-3404.947333,78141.740796
2876.155873,740.205942,-7254.018232,79061.055394
2876.158401,-3404.947333,-2812.782580,78601.398095
2876.160929,-1480.411884,-6217.729913,79061.055394
2876.163457,-3108.864956,7846.182985,79980.369991
2876.165985,-592.164754,-16432.571912,81665.780087
2876.168514,1480.411884,-2812.782580,76915.987999
2876.171042,3997.112087,26647.413912,76149.892501
2876.173570,12139.377449,-35529.885216,80746.465489
2876.176098,11991.336260,2516.700203,80286.808190
2876.178626,-2812.782580,2516.700203,75230.577904
2876.181154,18653.189738,-5625.565159,81512.560987
2876.183682,-21762.054695,12731.542202,75537.016103
2876.186210,10066.800811,-58772.351795,82278.656485
2876.188739,18653.189738,-54331.116143,83657.628382
2876.191267,-22798.343014,21465.972318,74158.044206
2876.193795,5773.606348,-11103.089130,80593.246390
2876.196323,-1480.411884,-6217.729913,79520.712692
2876.198851,-12583.501014,1184.329507,79520.712692
2876.201379,5625.565159,-740.205942,81206.122788
2876.203907,-17764.942608,6365.771101,77222.426198
2876.206435,-6809.894666,-1480.411884,78294.959896
2876.208964,-3404.947333,13323.706956,79367.493593
2876.211492,0.000000,-8290.306550,81972.218286
2876.214020,-296.082377,-9474.636058,79520.712692
2876.216548,-7698.141797,3108.864956,77222.426198
2876.219076,1480.411884,-2220.617826,79520.712692
2876.221604,-5181.441594,-6661.853478,79980.369991
2876.224132,-2960.823768,12583.501014,79214.274493
2876.226660,-1628.453072,3849.070898,78907.836294
2876.229189,1332.370696,18061.024985,78294.959896
2876.231717,-3108.864956,10955.047942,77375.645298
2876.234245,-1628.453072,17912.983796,78601.398095
2876.236773,3108.864956,-6217.729913,80746.465489
2876.239301,1776.494261,-2220.617826,80593.246390
2876.241829,-8882.471304,3552.988522,78141.740796
2876.244357,1924.535449,-1924.535449,77222.426198
2876.246885,-3701.029710,17468.860231,79061.055394
2876.249413,-3701.029710,-5477.523971,83810.847481
2876.251941,11991.336260,23094.425390,74924.139704
2876.254468,-6513.812290,19541.436869,77988.521696
2876.256996,-10066.800811,51814.415940,78294.959896
2876.259524,9030.512492,35381.844028,76609.549800
2876.262052,25018.960840,-24130.713709,81206.122788
2876.264580,-740.205942,13915.871710,77528.864398
2876.267108,7550.100608,-8142.265362,79673.931792
2876.269636,19837.519246,17912.983796,76915.987999
2876.272164,-6957.935855,54183.074954,72932.291410
2876.274692,2516.700203,4885.359217,85036.600278
2876.277220,4293.194464,5477.523971,77835.302597
2876.279747,-23686.590144,2220.617826,76762.768900
2876.282275,20873.807564,8142.265362,78754.617194
2876.284803,-13471.748144,592.164754,78754.617194
2876.287331,4441.235652,-5033.400406,81052.903688
2876.289859,3256.906145,-12435.459826,78754.617194
2876.292387,-10658.965565,15248.242405,80593.246390
2876.294915,2812.782580,20873.807564,78141.740796
2876.297443,-6217.729913,10658.965565,77528.864398
2876.299971,-11399.171507,6365.771101,78601.398095
2876.302499,6069.688724,19393.395680,81512.560987
2876.305026,-8290.306550,-12731.542202,79061.055394
2876.307554,-8882.471304,-740.205942,79367.493593
2876.310082,-592.164754,1332.370696,78754.617194
2876.312610,-3256.906145,-4145.153275,79827.150892
2876.315138,1776.494261,13471.748144,80440.027290
2876.317666,-2812.782580,-12879.583391,76915.987999
2876.320194,2220.617826,-1924.535449,79367.493593
2876.322722,-4589.276840,-1776.494261,79980.369991
2876.325250,2812.782580,-5181.441594,80440.027290
2876.327778,740.205942,-444.123565,77682.083497
2876.330305,-4293.194464,-10066.800811,76303.111601
2876.332833,1036.288319,-10807.006753,82431.875585
2876.335361,-2220.617826,-296.082377,78448.178995
2876.337889,4293.194464,27683.702231,75537.016103
2876.340417,3701.029710,47373.180288,74924.139704
2876.342876,3849.070898,-11251.130318,79520.712692
2876.345335,20577.725188,15988.448347,78907.836294
2876.347795,740.205942,12731.542202,77682.083497
2876.350254,39230.914926,30348.443622,80746.465489
2876.352713,24130.713709,-47669.262665,75383.797003
2876.355172,444.123565,74908.841330,72472.634111
2876.357632,47521.221476,7994.224174,79214.274493
2876.360091,9030.512492,-38490.708984,79673.931792
2876.362550,-14359.995275,59068.434172,75996.673402
2876.365009,9474.636058,-44116.274143,80286.808190
2876.367468,11399.171507,-740.205942,78907.836294
2876.369928,-3552.988522,7550.100608,77069.207099
2876.372387,5921.647536,-21910.095883,81512.560987
2876.374846,148.041188,22058.137072,79520.712692
2876.377305,2664.741391,-25759.166782,79827.150892
2876.379764,-444.123565,-2072.576638,78141.740796
2876.382224,-6365.771101,10807.006753,78754.617194
2876.384683,444.123565,-3404.947333,80440.027290
2876.387142,-5181.441594,4293.194464,78754.617194
2876.389601,-7105.977043,12583.501014,77222.426198
2876.392061,-3552.988522,6365.771101,76915.987999
2876.394520,0.000000,21762.054695,80133.589091
2876.396979,-740.205942,14508.036463,77835.302597
2876.399438,1628.453072,9622.677246,77682.083497
2876.401897,5625.565159,-5625.565159,79520.712692
2876.404357,-2368.659014,1776.494261,78601.398095
2876.406816,-1184.329507,4145.153275,79214.274493
2876.409275,5625.565159,4737.318029,77528.864398
2876.411734,-3108.864956,17468.860231,79061.055394
2876.414193,-5477.523971,-2812.782580,82125.437386
2876.416653,0.000000,444.123565,78907.836294
2876.419112,-11547.212695,-26351.331535,82738.313784
2876.421571,-9030.512492,-4737.318029,81972.218286
2876.424030,-20873.807564,78017.706287,76149.892501
2876.426490,888.247130,-13471.748144,78294.959896
2876.428949,-9918.759623,21910.095883,78448.178995
2876.431408,-1332.370696,63361.628635,76762.768900
2876.433867,18801.230927,-54035.033766,83197.971083
2876.436326,-740.205942,-25315.043216,80746.465489
2876.438786,10807.006753,13619.789333,76456.330700
2876.441262,3997.112087,-13915.871710,80440.027290
2876.443741,-2812.782580,21021.848753,79980.369991
2876.446219,-3552.988522,-12583.501014,80133.589091
2876.448698,9770.718434,-8734.430116,79367.493593
2876.451177,-6809.894666,8586.388927,77528.864398
2876.453656,-3701.029710,16284.530724,78294.959896
2876.456135,-2960.823768,35974.008781,79367.493593
2876.458614,5033.400406,3701.029710,78907.836294
2876.461092,-6513.812290,740.205942,75383.797003
2876.463571,4145.153275,21614.013506,79520.712692
2876.466050,-1480.411884,-2220.617826,79367.493593
2876.468529,5329.482782,-16136.489536,81052.903688
2876.471008,1480.411884,8290.306550,77682.083497
2876.473487,444.123565,-14063.912898,79367.493593
2876.475965,3997.112087,13767.830521,79367.493593
2876.478444,-2664.741391,-7402.059420,76609.549800
2876.480923,5033.400406,-2812.782580,79673.931792
2876.483402,-4293.194464,-740.205942,81359.341888
2876.485881,740.205942,-11103.089130,80593.246390
2876.488360,-3997.112087,5773.606348,76915.987999
2876.490838,-1776.494261,-9030.512492,76609.549800
2876.493317,-1924.535449,-6365.771101,82431.875585
2876.495796,-2960.823768,1480.411884,80286.808190
2876.498275,5033.400406,21169.889941,75996.673402
2876.500754,-18653.189738,12731.542202,78294.959896
2876.503233,-16876.695478,21762.054695,78601.398095
2876.505712,3997.112087,-2812.782580,82278.656485
2876.508190,-2368.659014,3701.029710,79520.712692
2876.510669,-3256.906145,9326.594869,78448.178995
2876.513148,14211.954086,-34049.473332,80286.808190
2876.515627,6217.729913,-56847.816346,81359.341888
2876.518106,-4589.276840,8438.347739,75996.673402
2876.520585,3701.029710,-11843.295072,85036.600278
2876.523063,3997.112087,7550.100608,78754.617194
2876.525542,-17468.860231,1332.370696,74924.139704
2876.528021,2516.700203,-14063.912898,80899.684589
2876.530500,2220.617826,11547.212695,79520.712692
2876.532979,-888.247130,5033.400406,78448.178995
2876.535458,-2368.659014,-7550.100608,78448.178995
2876.537936,-3997.112087,-2664.741391,78448.178995
2876.540368,1924.535449,6957.935855,78754.617194
2876.542800,-2072.576638,3701.029710,79214.274493
2876.545231,-1480.411884,-2516.700203,81206.122788
2876.547663,2812.782580,1628.453072,78141.740796
2876.550094,-1036.288319,3552.988522,77069.207099
2876.552526,2812.782580,12583.501014,78754.617194
2876.554958,-4737.318029,5181.441594,78601.398095
2876.557389,4885.359217,11991.336260,79214.274493
2876.559821,-3108.864956,-7698.141797,78448.178995
2876.562252,-1480.411884,7994.224174,80593.246390
2876.564684,-1036.288319,-1924.535449,79061.055394
2876.567116,-2664.741391,6217.729913,76762.768900
2876.569547,-3552.988522,15840.407159,79827.150892
2876.571979,-10658.965565,7846.182985,77682.083497
2876.574410,4589.276840,-1036.288319,78448.178995
2876.576842,-5773.606348,-2960.823768,81206.122788
2876.579274,-24722.878463,31532.773129,79214.274493
2876.581705,-22798.343014,73872.553012,77835.302597
2876.584137,1480.411884,-1184.329507,78294.959896
2876.586568,-15544.324782,13175.665768,77682.083497
2876.589000,-19541.436869,10214.842000,82431.875585
2876.591432,-296.082377,64249.875766,76762.768900
2876.593863,1776.494261,16136.489536,78141.740796
2876.596295,-5625.565159,19689.478057,81512.560987
2876.598726,10362.883188,-32421.020260,78448.178995
2876.601158,8142.265362,11251.130318,78601.398095
2876.603590,-6217.729913,-12435.459826,78907.836294
2876.606021,12731.542202,7846.182985,79827.150892
2876.608453,1776.494261,-888.247130,77682.083497
2876.610884,-4589.276840,10955.047942,78907.836294
2876.613316,5033.400406,9178.553681,79367.493593
2876.615748,-5921.647536,-444.123565,79061.055394
2876.618179,2664.741391,3997.112087,78601.398095
2876.620611,-1924.535449,9178.553681,79520.712692
2876.623042,-3701.029710,-15988.448347,80440.027290
2876.625474,-2664.741391,-12583.501014,79061.055394
2876.627906,1332.370696,7402.059420,79980.369991
2876.630337,-11399.171507,2368.659014,78754.617194
2876.632769,1036.288319,11399.171507,79980.369991
2876.635200,-8586.388927,-4589.276840,76915.987999
2876.637661,-4589.276840,-2368.659014,79520.712692
2876.640122,592.164754,-6069.688724,82585.094684
2876.642583,-3997.112087,-148.041188,78907.836294
2876.645043,-888.247130,-6513.812290,76762.768900
2876.647504,-2812.782580,-3256.906145,80440.027290
2876.649965,-3256.906145,9178.553681,78601.398095
2876.652426,1036.288319,23686.590144,77835.302597
2876.654886,3404.947333,50778.127621,75537.016103
2876.657347,6661.853478,-17172.777854,79061.055394
2876.659808,16876.695478,-15692.365970,80286.808190
2876.662268,-1480.411884,3849.070898,78141.740796
2876.664729,-5625.565159,10214.842000,78601.398095
2876.667190,19097.313304,13767.830521,77988.521696
2876.669651,19393.395680,-31828.855506,76456.330700
2876.672111,15396.283594,-5181.441594,77069.207099
2876.674572,1924.535449,-13471.748144,79520.712692
2876.677033,11251.130318,-17912.983796,81818.999186
2876.679494,-3404.947333,4145.153275,77069.207099
2876.681954,-6365.771101,-8882.471304,78907.836294
2876.684415,-5033.400406,5773.606348,78754.617194
2876.686876,-2516.700203,-0.000000,79061.055394
2876.689337,-3404.947333,-3849.070898,80440.027290
2876.691797,-5033.400406,9326.594869,77682.083497
2876.694258,-2368.659014,6365.771101,77835.302597
2876.696719,0.000000,-5477.523971,80746.465489
2876.699179,-5921.647536,-15840.407159,81206.122788
2876.701640,-3108.864956,17912.983796,79214.274493
2876.704101,-8142.265362,14804.118840,76915.987999
2876.706562,4145.153275,18505.148550,79827.150892
2876.709022,-5921.647536,16432.571912,77375.645298
2876.711483,296.082377,12287.418637,78907.836294
2876.713944,3256.906145,-16136.489536,81665.780087
2876.716405,-2072.576638,1036.288319,79520.712692
2876.718865,-3108.864956,1332.370696,75996.673402
2876.721326,-2664.741391,17320.819043,77988.521696
2876.723787,-5921.647536,14804.118840,83351.190182
2876.726247,11695.253884,2220.617826,77528.864398
2876.728708,-3108.864956,15544.324782,77988.521696
2876.731169,-14952.160028,49741.839302,77222.426198
2876.733630,2516.700203,8586.388927,78754.617194
2876.736113,19393.395680,-3849.070898,81206.122788
2876.738596,-2220.617826,6365.771101,76915.987999
2876.741079,19689.478057,47817.303853,75383.797003
2876.743562,2664.741391,-24574.837274,79214.274493
2876.746045,22502.260637,-22650.301825,79673.931792
2876.748528,3552.988522,13323.706956,82278.656485
2876.751011,11991.336260,-41303.491564,80440.027290
2876.753495,12287.418637,20873.807564,77375.645298
2876.755978,-12435.459826,-14952.160028,75690.235202
2876.758461,13915.871710,2812.782580,81512.560987
2876.760944,-1184.329507,13471.748144,78754.617194
2876.763427,-1036.288319,12583.501014,78141.740796
2876.765910,-148.041188,20725.766376,76915.987999
2876.768393,-10066.800811,-2220.617826,75843.454302
2876.770876,10510.924376,12583.501014,80286.808190
2876.773359,-3552.988522,15692.365970,80133.589091
2876.775843,-5329.482782,-25018.960840,80899.684589
2876.778326,3849.070898,-6513.812290,77988.521696
2876.780809,-6217.729913,-13175.665768,79520.712692
2876.783292,-1924.535449,8882.471304,80746.465489
2876.785775,-5773.606348,2812.782580,79214.274493
2876.788258,1924.535449,-5181.441594,79520.712692
2876.790741,-5329.482782,-1332.370696,78294.959896
2876.793224,-3108.864956,-13027.624579,80899.684589
2876.795708,-740.205942,-0.000000,80286.808190
2876.798191,-2664.741391,444.123565,77222.426198
2876.800674,2220.617826,3552.988522,78294.959896
2876.803157,740.205942,-7698.141797,79827.150892
2876.805640,2072.576638,11695.253884,75996.673402
2876.808123,21169.889941,-45300.603650,81359.341888
2876.810606,5181.441594,12435.459826,80133.589091
2876.813089,-8882.471304,-127907.586778,84730.162079
2876.815572,-3701.029710,40415.244433,76915.987999
2876.818056,-43524.109390,-17468.860231,77835.302597
2876.820539,-3849.070898,27683.702231,83351.190182
2876.823022,-38194.626607,36566.173535,77835.302597
2876.825505,-148.041188,-16136.489536,81972.218286
2876.827988,-10658.965565,17320.819043,78141.740796
2876.830471,-17320.819043,-8882.471304,77069.207099
2876.832954,-6513.812290,4293.194464,79827.150892
2876.835454,-9622.677246,1184.329507,81359.341888
2876.837954,-1628.453072,-6217.729913,79827.150892
2876.840454,-5773.606348,-1924.535449,79367.493593
2876.842954,-9622.677246,-3997.112087,77375.645298
2876.845454,3404.947333,-1184.329507,81359.341888
2876.847954,0.000000,592.164754,80440.027290
2876.850454,-3849.070898,-14656.077652,79673.931792
2876.852954,1480.411884,10807.006753,77988.521696
2876.855453,-10362.883188,8586.388927,76303.111601
2876.857953,10807.006753,17320.819043,81972.218286
2876.860453,-148.041188,20725.766376,78294.959896
2876.862953,-8142.265362,8438.347739,76303.111601
2876.865453,5329.482782,-8586.388927,80133.589091
2876.867953,-5033.400406,740.205942,77988.521696
2876.870453,-1036.288319,-1776.494261,80593.246390
2876.872953,1332.370696,14359.995275,78141.740796
2876.875453,-6365.771101,14952.160028,75077.358804
2876.877953,-4293.194464,-9770.718434,82278.656485
2876.880453,-6661.853478,-27683.702231,80286.808190
2876.882953,-3256.906145,-29608.237680,82278.656485
2876.885453,-37602.461854,81718.735997,79061.055394
2876.887952,-10510.924376,-20873.807564,76609.549800
2876.890452,-2960.823768,10955.047942,77835.302597
2876.892952,-32272.979071,20725.766376,81206.122788
2876.895452,-8438.347739,48705.550984,78294.959896
2876.897952,-4293.194464,5921.647536,83810.847481
2876.900452,-20577.725188,34049.473332,76762.768900
2876.902952,-10807.006753,-36714.214723,78601.398095
2876.905452,9030.512492,17172.777854,80133.589091
2876.907952,-11251.130318,1628.453072,79520.712692
2876.910452,13619.789333,-2960.823768,79980.369991
2876.912952,1184.329507,13471.748144,78601.398095
2876.915452,-4589.276840,4589.276840,76915.987999
2876.917951,-5181.441594,-4589.276840,78448.178995
2876.920451,-1628.453072,5033.400406,80746.465489
2876.922951,2516.700203,14804.118840,80899.684589
2876.925451,-2220.617826,-24130.713709,78448.178995
2876.927951,-14508.036463,-1628.453072,77835.302597
2876.930451,6661.853478,592.164754,81359.341888
2876.932951,-12879.583391,3404.947333,79214.274493
2876.935465,4145.153275,11843.295072,82278.656485
2876.937979,-7550.100608,-7846.182985,76149.892501
2876.940494,-4589.276840,-2812.782580,76915.987999
2876.943008,-2516.700203,-6809.894666,80746.465489
2876.945522,-1184.329507,296.082377,81052.903688
2876.948036,2960.823768,1924.535449,78141.740796
2876.950551,-2220.617826,-7994.224174,80133.589091
2876.953065,-5329.482782,-1332.370696,77682.083497
2876.955579,8586.388927,9474.636058,78907.836294
2876.958093,14804.118840,-37750.503042,80899.684589
2876.960608,12583.501014,61585.134374,76149.892501
2876.963122,-12731.542202,-28868.031738,76915.987999
2876.965636,29016.072926,8882.471304,81052.903688
2876.968150,5329.482782,-52110.498317,77528.864398
2876.970665,-9474.636058,54775.239708,76149.892501
2876.973179,-888.247130,-13471.748144,80286.808190
2876.975693,20873.807564,-30644.525999,78754.617194
2876.978207,-13323.706956,52406.580694,71553.319513
2876.980722,23982.672521,-29756.278868,82891.532884
2876.983236,-9178.553681,6809.894666,76303.111601
2876.985750,-2516.700203,1480.411884,79673.931792
2876.988264,444.123565,-22354.219448,80133.589091
2876.990778,-7550.100608,4441.235652,76915.987999
2876.993293,296.082377,-8142.265362,79980.369991
2876.995807,-7402.059420,5477.523971,80593.246390
2876.998321,1480.411884,4441.235652,80899.684589
2877.000835,2072.576638,-12583.501014,78294.959896
2877.003350,-8586.388927,16284.530724,77222.426198
2877.005864,-4441.235652,8290.306550,80133.589091
2877.008378,-1036.288319,11251.130318,81359.341888
2877.010892,-2960.823768,12287.418637,78448.178995
2877.013407,-11695.253884,8142.265362,75383.797003
2877.015931,-2960.823768,7550.100608,79827.150892
2877.018455,1332.370696,-5477.523971,82125.437386
2877.020980,-8586.388927,14063.912898,78754.617194
2877.023504,7550.100608,1628.453072,80133.589091
2877.026029,-2960.823768,20133.601622,75077.358804
2877.028553,-7550.100608,3849.070898,82278.656485
2877.031078,-4737.318029,-41155.450375,83810.847481
2877.033602,-24722.878463,61437.093186,79520.712692
2877.036126,-15396.283594,-23982.672521,79980.369991
2877.038651,-9770.718434,23390.507767,77069.207099
2877.041175,-19097.313304,66026.370026,76609.549800
2877.043700,11695.253884,-79053.994606,84117.285680
2877.046224,-2960.823768,41007.409187,80593.246390
2877.048748,-1184.329507,-888.247130,76456.330700
2877.051273,7846.182985,-740.205942,75537.016103
2877.053797,-16728.654289,17912.983796,77682.083497
2877.056322,9622.677246,16876.695478,81359.341888
2877.058846,6217.729913,-2960.823768,79520.712692
2877.061371,-2072.576638,29164.114115,78141.740796
2877.063895,6661.853478,1776.494261,77528.864398
2877.066419,-7550.100608,3849.070898,76609.549800
2877.068944,9326.594869,5921.647536,80440.027290
2877.071468,6069.688724,4441.235652,81359.341888
2877.073993,-2960.823768,-6069.688724,77835.302597
2877.076517,-3849.070898,-14656.077652,77528.864398
2877.079041,5329.482782,2220.617826,79367.493593
2877.081566,-9770.718434,-3256.906145,79214.274493
2877.084090,7402.059420,11251.130318,82431.875585
2877.086615,-7402.059420,1332.370696,75996.673402
2877.089139,-5033.400406,-5921.647536,76609.549800
2877.091664,-148.041188,-8290.306550,82278.656485
2877.094188,-2368.659014,-1776.494261,81818.999186
2877.096712,3701.029710,-12435.459826,79367.493593
2877.099237,-1776.494261,14508.036463,74924.139704
2877.101761,-6809.894666,444.123565,77988.521696
2877.104286,-9326.594869,-11547.212695,82125.437386
2877.106810,-13027.624579,62177.299128,79061.055394
2877.109335,4589.276840,-54331.116143,82278.656485
2877.111859,5477.523971,15544.324782,78448.178995
2877.114383,-6217.729913,75797.088461,71400.100414
2877.116865,12435.459826,-115916.250517,89786.392366
2877.119347,148.041188,-11251.130318,82125.437386
2877.121829,-24574.837274,-21317.931130,75537.016103
2877.124310,21317.931130,4293.194464,82891.532884
2877.126792,-38934.832549,30348.443622,70634.004916
2877.129274,7550.100608,-18357.107362,85496.257577
2877.131755,3404.947333,5773.606348,78907.836294
2877.134237,-8438.347739,4885.359217,78754.617194
2877.136719,-3108.864956,-9918.759623,80593.246390
2877.139201,-9178.553681,4293.194464,76609.549800
2877.141682,7550.100608,-7846.182985,80746.465489
2877.144164,-148.041188,-7698.141797,81359.341888
2877.146646,-5921.647536,-1776.494261,78601.398095
2877.149128,4293.194464,296.082377,78141.740796
2877.151609,-15988.448347,29756.278868,74617.701505
2877.154091,5921.647536,2516.700203,81512.560987
2877.156573,2072.576638,25315.043216,79520.712692
2877.159054,-3404.947333,3701.029710,77528.864398
2877.161536,5181.441594,-14211.954086,79827.150892
2877.164018,-7698.141797,8290.306550,77222.426198
2877.166500,-444.123565,-1332.370696,81052.903688
2877.168981,3997.112087,4441.235652,79827.150892
2877.171463,-5773.606348,-6365.771101,80286.808190
2877.173945,-4145.153275,-19985.560434,79980.369991
2877.176426,-3108.864956,-36270.091158,79980.369991
2877.178908,-3256.906145,30792.567187,79214.274493
2877.181390,-12139.377449,-8290.306550,80593.246390
2877.183872,1924.535449,15396.283594,79520.712692
2877.186353,-17616.901420,3108.864956,77069.207099
2877.188835,-17912.983796,-60548.846056,80899.684589
2877.191317,-28423.908173,37454.420665,83351.190182
2877.193799,-8438.347739,9918.759623,79980.369991
2877.196280,-13471.748144,27831.743419,76915.987999
2877.198762,-12139.377449,28275.866984,77222.426198
2877.201244,-444.123565,9474.636058,81052.903688
2877.203725,888.247130,6809.894666,79827.150892
2877.206207,-12435.459826,30940.608376,78448.178995
2877.208689,9326.594869,9178.553681,79061.055394
2877.211171,-19097.313304,-1332.370696,74924.139704
2877.213652,13619.789333,22206.178260,79980.369991
2877.216104,2960.823768,-2812.782580,79980.369991
2877.218555,444.123565,-8142.265362,80286.808190
2877.221006,5033.400406,-11991.336260,77528.864398
2877.223457,3404.947333,-10510.924376,77988.521696
2877.225908,-5921.647536,7846.182985,79827.150892
2877.228359,296.082377,-11991.336260,80133.589091
2877.230811,2220.617826,-444.123565,79827.150892
2877.233262,-3849.070898,-2072.576638,78601.398095
2877.235713,-1184.329507,-7846.182985,78601.398095
2877.238164,4293.194464,-2664.741391,79214.274493
2877.240615,-5625.565159,-8734.430116,81665.780087
2877.243067,5033.400406,13323.706956,77835.302597
2877.245518,-1184.329507,33605.349767,76762.768900
2877.247969,888.247130,46781.015534,74004.825107
2877.250420,21614.013506,-46484.933158,80899.684589
2877.252871,16876.695478,-5181.441594,79673.931792
2877.255322,-5625.565159,-2812.782580,76456.330700
2877.257774,-7846.182985,59660.598925,77375.645298
2877.260225,18357.107362,5181.441594,76456.330700
2877.262676,17320.819043,-8290.306550,79827.150892
2877.265127,5625.565159,-23094.425390,80440.027290
2877.267578,14656.077652,-30348.443622,81052.903688
2877.270029,1184.329507,4737.318029,77069.207099
2877.272481,4293.194464,-23982.672521,78294.959896
2877.274932,8290.306550,7550.100608,79061.055394
2877.277383,-5921.647536,-5329.482782,78907.836294
2877.279834,5033.400406,-14952.160028,80593.246390
2877.282285,-148.041188,8734.430116,78448.178995
2877.284737,-5181.441594,-10658.965565,78907.836294
2877.287188,-2664.741391,-9474.636058,81512.560987
2877.289639,-6217.729913,15396.283594,79214.274493
2877.292090,-4589.276840,12287.418637,79061.055394
2877.294541,2072.576638,14508.036463,79827.150892
2877.296992,-7402.059420,15840.407159,76456.330700
2877.299444,-888.247130,12879.583391,78141.740796
2877.301895,444.123565,-12583.501014,81818.999186
2877.304346,-2664.741391,7254.018232,81359.341888
2877.306797,-2812.782580,-6069.688724,77682.083497
2877.309248,-2220.617826,-7994.224174,79214.274493
2877.311700,-1332.370696,37602.461854,76149.892501
2877.314178,-148.041188,29756.278868,79214.274493
2877.316656,6661.853478,51370.292375,77835.302597
2877.319134,3404.947333,-99335.637416,84117.285680
2877.321613,-7550.100608,55811.528027,78141.740796
2877.324091,-13323.706956,3849.070898,76609.549800
2877.326569,9918.759623,-12287.418637,80746.465489
2877.329048,-15692.365970,-12139.377449,81665.780087
2877.331526,-12731.542202,-13915.871710,77682.083497
2877.334004,4293.194464,4441.235652,80899.684589
2877.336483,-14804.118840,-5181.441594,79827.150892
2877.338961,-10658.965565,8142.265362,77835.302597
2877.341439,7550.100608,26499.372724,80440.027290
2877.343917,-7846.182985,2072.576638,77988.521696
2877.346396,-4737.318029,6365.771101,76609.549800
2877.348874,-5625.565159,10510.924376,78754.617194
2877.351352,-4293.194464,-5921.647536,81972.218286
2877.353831,-1776.494261,21169.889941,81665.780087
2877.356309,-5921.647536,-2220.617826,77222.426198
2877.358787,-9326.594869,-15248.242405,77988.521696
2877.361266,-740.205942,1036.288319,79980.369991
2877.363744,-4293.194464,-24574.837274,80593.246390
2877.366222,5033.400406,17320.819043,81972.218286
2877.368700,-7254.018232,-3849.070898,75690.235202
2877.371179,-2072.576638,-8586.388927,76303.111601
2877.373657,-1924.535449,-3256.906145,81359.341888
2877.376135,-3256.906145,-13767.830521,81818.999186
2877.378614,7402.059420,-7550.100608,81359.341888
2877.381092,-5773.606348,12879.583391,73851.606007
2877.383570,-6217.729913,21614.013506,75996.673402
2877.386049,740.205942,50037.921679,78448.178995
2877.388527,3701.029710,-29756.278868,82738.313784
2877.391005,19541.436869,-10510.924376,82278.656485
2877.393483,-10510.924376,24574.837274,74770.920605
2877.395962,-9918.759623,-40119.162056,79520.712692
2877.398440,21465.972318,-66766.575968,85343.038477
2877.400918,-26499.372724,14656.077652,75383.797003
2877.403397,11843.295072,-13915.871710,85496.257577
2877.405875,-8882.471304,11695.253884,76303.111601
2877.408353,-21317.931130,-2516.700203,76609.549800
2877.410832,1184.329507,6661.853478,83504.409282
2877.413331,-14508.036463,-2664.741391,78601.398095
2877.415831,-5477.523971,-11103.089130,81052.903688
2877.418331,-9326.594869,6809.894666,77528.864398
2877.420830,-9326.594869,11399.171507,78141.740796
2877.423330,7105.977043,-3404.947333,81972.218286
2877.425830,-3108.864956,-10955.047942,79214.274493
2877.428330,-2072.576638,19985.560434,77988.521696
2877.430830,-5477.523971,7994.224174,76915.987999
2877.433329,1480.411884,6809.894666,78907.836294
2877.435829,-1776.494261,23242.466579,78601.398095
2877.438329,-3108.864956,11251.130318,78601.398095
2877.440829,8290.306550,-9326.594869,81818.999186
2877.443329,-2960.823768,6513.812290,77528.864398
2877.445829,-7550.100608,-2960.823768,76456.330700
2877.448328,3256.906145,22502.260637,77682.083497
2877.450828,-9178.553681,888.247130,81206.122788
2877.453328,2516.700203,-2072.576638,77528.864398
2877.455828,6957.935855,-59216.475360,80133.589091
2877.458328,-9030.512492,37898.544230,76762.768900
2877.460827,-11843.295072,-31532.773129,81972.218286
2877.463327,3404.947333,78609.871040,77682.083497
2877.465827,592.164754,-33753.390955,77528.864398
2877.468327,13915.871710,-20725.766376,78907.836294
2877.470827,-11251.130318,31976.896694,74617.701505
2877.473327,888.247130,2368.659014,82431.875585
2877.475826,-9326.594869,10066.800811,79520.712692
2877.478326,-10955.047942,18949.272115,74924.139704
2877.480826,12879.583391,11547.212695,78907.836294
2877.483326,-9918.759623,8734.430116,75996.673402
2877.485826,5773.606348,11399.171507,81206.122788
2877.488325,296.082377,-3108.864956,78907.836294
2877.490825,-2072.576638,17024.736666,78907.836294
2877.493325,148.041188,7105.977043,78601.398095
2877.495825,-7402.059420,-18949.272115,77682.083497
2877.498325,4885.359217,-888.247130,79520.712692
2877.500825,-296.082377,-21762.054695,82278.656485
2877.503324,-5033.400406,5181.441594,78754.617194
2877.505824,-3404.947333,-1184.329507,75843.454302
2877.508324,-1036.288319,-6069.688724,78601.398095
2877.510824,-4589.276840,1628.453072,81052.903688
2877.513340,296.082377,-17912.983796,82125.437386
2877.515857,1628.453072,-592.164754,79980.369991
2877.518373,-1924.535449,-3256.906145,74770.920605
2877.520890,-17172.777854,-22650.301825,81206.122788
2877.523406,-17764.942608,-21169.889941,84270.504780
2877.525923,-14359.995275,49889.880491,79214.274493
2877.528439,6069.688724,-76981.417968,80899.684589
2877.530956,-18357.107362,35825.967593,74311.263306
2877.533472,-3552.988522,-57884.104664,79214.274493
2877.535989,-2812.782580,25907.207970,84117.285680
2877.538505,-12731.542202,-10066.800811,80133.589091
2877.541022,10955.047942,-31532.773129,79061.055394
2877.543538,-16432.571912,39230.914926,76149.892501
2877.546054,-444.123565,-16580.613101,79061.055394
2877.548571,740.205942,3256.906145,81359.341888
2877.551087,4293.194464,-6661.853478,79827.150892
2877.553604,3701.029710,-20577.725188,77375.645298
2877.556120,-4885.359217,11251.130318,78294.959896
2877.558637,592.164754,-11103.089130,79367.493593
2877.561153,4293.194464,-4885.359217,81512.560987
2877.563670,-740.205942,-7254.018232,79214.274493
2877.566186,888.247130,7550.100608,76609.549800
2877.568703,-888.247130,23834.631332,76149.892501
2877.571219,-2812.782580,1036.288319,79520.712692
2877.573736,444.123565,16432.571912,79980.369991
2877.576252,-5329.482782,12435.459826,78601.398095
2877.578769,1924.535449,-11695.253884,80440.027290
2877.581285,-2664.741391,6661.853478,78754.617194
2877.583801,-1924.535449,296.082377,78294.959896
2877.586318,2368.659014,26351.331535,76303.111601
2877.588834,-11991.336260,-296.082377,82278.656485
2877.591351,-8142.265362,-48853.592172,81972.218286
2877.593867,-10807.006753,37010.297100,75537.016103
2877.596384,-23094.425390,-4737.318029,79061.055394
2877.598900,740.205942,15544.324782,83657.628382
2877.601417,-17468.860231,71059.770432,74770.920605
2877.603933,-148.041188,-38934.832549,77682.083497
2877.606450,15396.283594,38342.667796,76456.330700
2877.608966,-19541.436869,7846.182985,79980.369991
2877.611483,19985.560434,-24722.878463,83964.066581
2877.613967,-4885.359217,25611.125593,78448.178995
2877.616452,-5921.647536,14063.912898,79520.712692
2877.618937,-2516.700203,14211.954086,77988.521696
2877.621421,-3404.947333,18209.066173,76456.330700
2877.623906,-1332.370696,2516.700203,81359.341888
2877.626391,8142.265362,11695.253884,79367.493593
2877.628876,-7254.018232,10066.800811,76303.111601
2877.631360,2220.617826,-14359.995275,79214.274493
2877.633845,-9178.553681,-15248.242405,78601.398095
2877.636330,11103.089130,-13175.665768,83504.409282
2877.638814,-5033.400406,6809.894666,78754.617194
2877.641299,-5477.523971,2072.576638,76915.987999
2877.643784,0.000000,1480.411884,77682.083497
2877.646268,-5329.482782,-5477.523971,78601.398095
2877.648753,1332.370696,-10807.006753,83044.751983
2877.651238,-2072.576638,1776.494261,79673.931792
2877.653723,-11251.130318,-11843.295072,77375.645298
2877.656207,1776.494261,5921.647536,78601.398095
2877.658692,2812.782580,-26943.496289,81512.560987
2877.661177,10066.800811,-53738.951389,82585.094684
2877.663661,-17320.819043,38490.708984,74924.139704
2877.666146,11695.253884,-10362.883188,80133.589091
2877.668631,-444.123565,38638.750172,74924.139704
2877.671115,3849.070898,-42043.697506,81206.122788
2877.673600,24722.878463,1776.494261,78754.617194
2877.676085,-1480.411884,444.123565,75843.454302
2877.678570,9178.553681,-33901.432144,78754.617194
2877.681054,6661.853478,2516.700203,77835.302597
2877.683539,2812.782580,-9030.512492,78294.959896
2877.686024,15988.448347,-7550.100608,81665.780087
2877.688508,-592.164754,-2368.659014,75383.797003
2877.690993,2516.700203,-7402.059420,77988.521696
2877.693478,-2960.823768,7846.182985,78448.178995
2877.695962,6957.935855,-6365.771101,81359.341888
2877.698447,5477.523971,-1184.329507,79520.712692
2877.700932,-5181.441594,18061.024985,77528.864398
2877.703417,5625.565159,11399.171507,77988.521696
2877.705901,-9030.512492,-3997.112087,78141.740796
2877.708386,-1184.329507,18357.107362,81818.999186
2877.710871,-6809.894666,-1628.453072,79367.493593
2877.713376,-2960.823768,6365.771101,79827.150892
2877.715882,1184.329507,12287.418637,78754.617194
2877.718388,-13619.789333,7846.182985,77222.426198
2877.720893,12287.418637,18357.107362,78754.617194
2877.723399,-12879.583391,15248.242405,79520.712692
2877.725905,-15396.283594,44708.438897,77835.302597
2877.728410,6365.771101,-56995.857534,81206.122788
2877.730916,2072.576638,38786.791361,79061.055394
2877.733422,-11103.089130,-26647.413912,77375.645298
2877.735927,5625.565159,80534.406490,77069.207099
2877.738433,888.247130,6513.812290,77375.645298
2877.740938,-8586.388927,-1776.494261,79367.493593
2877.743444,-2368.659014,1332.370696,80133.589091
2877.745950,14804.118840,-10362.883188,82738.313784
2877.748455,-12435.459826,35233.802839,78294.959896
2877.750961,-1924.535449,2960.823768,78294.959896
2877.753467,1924.535449,1924.535449,77222.426198
2877.755972,-7994.224174,-3108.864956,77222.426198
2877.758478,8586.388927,-2812.782580,82585.094684
2877.760984,1184.329507,12435.459826,80440.027290
2877.763489,-2812.782580,-3552.988522,75230.577904
2877.765995,-3701.029710,-17912.983796,77222.426198
2877.768501,2664.741391,-888.247130,81512.560987
2877.771006,-5773.606348,-21169.889941,81359.341888
2877.773512,6365.771101,9474.636058,81206.122788
2877.776017,-7698.141797,2960.823768,75537.016103
2877.778523,-7402.059420,-8586.388927,76456.330700
2877.781029,-1776.494261,3552.988522,80899.684589
2877.783534,-4293.194464,-16136.489536,80899.684589
2877.786040,740.205942,-5033.400406,82585.094684
2877.788546,-2664.741391,17616.901420,76303.111601
2877.791051,-9770.718434,34345.555709,75996.673402
2877.793557,-2960.823768,-12435.459826,81665.780087
2877.796063,9770.718434,-15248.242405,83197.971083
2877.798568,-5625.565159,7698.141797,78448.178995
2877.801074,-2072.576638,-71207.811620,83197.971083
2877.803580,-6217.729913,-16728.654289,76915.987999
2877.806085,-35085.761651,-10214.842000,76609.549800
2877.808591,14804.118840,296.082377,86415.572174
2877.811097,-13767.830521,16432.571912,77528.864398
2877.813618,-3404.947333,-15248.242405,78601.398095
2877.816140,-9474.636058,-2812.782580,79214.274493
2877.818662,-16580.613101,-3256.906145,80133.589091
2877.821184,-1036.288319,-9918.759623,83044.751983
2877.823706,-7254.018232,9178.553681,79980.369991
2877.826228,-6217.729913,1036.288319,78601.398095
2877.828750,-5921.647536,-2812.782580,77835.302597
2877.831271,-8734.430116,-4293.194464,78754.617194
2877.833793,296.082377,11843.295072,81512.560987
2877.836315,296.082377,19393.395680,80746.465489
2877.838837,-444.123565,-1628.453072,77682.083497
2877.841359,-5773.606348,13915.871710,76456.330700
2877.843881,-8586.388927,5033.400406,77988.521696
2877.846403,5181.441594,5033.400406,82585.094684
2877.848924,-2368.659014,10362.883188,80286.808190
2877.851446,-9030.512492,23982.672521,73851.606007
2877.853968,3849.070898,13915.871710,76303.111601
2877.856490,-4441.235652,55367.404462,78448.178995
2877.859012,4441.235652,26795.455100,79214.274493
2877.861534,29460.196492,-26351.331535,83197.971083
2877.864056,-8882.471304,20725.766376,75230.577904
2877.866577,13323.706956,37898.544230,76609.549800
2877.869099,5329.482782,28275.866984,75230.577904
2877.871621,19689.478057,592.164754,79673.931792
2877.874143,11695.253884,3108.864956,82891.532884
2877.876665,-3701.029710,7846.182985,75690.235202
2877.879187,1628.453072,19097.313304,76915.987999
2877.881709,-592.164754,1924.535449,79673.931792
2877.884230,6957.935855,3108.864956,80133.589091
2877.886752,5033.400406,-5033.400406,79520.712692
2877.889274,-5773.606348,2072.576638,76303.111601
2877.891796,2664.741391,14211.954086,79673.931792
2877.894318,-8290.306550,-888.247130,80133.589091
2877.896840,-3552.988522,-8734.430116,80593.246390
2877.899362,1628.453072,-4441.235652,78448.178995
2877.901883,-3849.070898,-9474.636058,77835.302597
2877.904405,3108.864956,5329.482782,80899.684589
2877.906927,-7698.141797,1776.494261,77375.645298
2877.909449,1776.494261,-5625.565159,79367.493593
2877.911971,-2368.659014,-2516.700203,79980.369991
2877.914506,-5181.441594,-25907.207970,79214.274493
2877.917042,148.041188,7402.059420,75996.673402
2877.919578,-9474.636058,-8734.430116,81206.122788
2877.922113,-6217.729913,-16136.489536,82738.313784
2877.924649,-16432.571912,86159.971649,75690.235202
2877.927185,-6661.853478,-61141.010809,80746.465489
2877.929720,-3256.906145,-6365.771101,78907.836294
2877.932256,-59660.598925,72836.264693,78141.740796
2877.934791,-2220.617826,-23094.425390,82585.094684
2877.937327,16728.654289,22058.137072,81665.780087
2877.939863,-24722.878463,-11695.253884,70787.224015
2877.942398,25611.125593,-36566.173535,83351.190182
2877.944934,-20429.683999,13619.789333,79520.712692
2877.947469,3701.029710,-39378.956114,84576.942979
2877.950005,4293.194464,9770.718434,77988.521696
2877.952541,-7994.224174,12139.377449,74158.044206
2877.955076,-3404.947333,-11399.171507,80133.589091
2877.957612,-6661.853478,12287.418637,81359.341888
2877.960148,-592.164754,-29756.278868,81818.999186
2877.962683,-5329.482782,22206.178260,76762.768900
2877.965219,-19393.395680,23686.590144,75230.577904
2877.967754,11251.130318,16136.489536,81206.122788
2877.970290,-10066.800811,12731.542202,76915.987999
2877.972826,4145.153275,7846.182985,81818.999186
2877.975361,-444.123565,-12879.583391,78907.836294
2877.977897,-10658.965565,5773.606348,76456.330700
2877.980433,1776.494261,14211.954086,80440.027290
2877.982968,-10214.842000,13915.871710,80899.684589
2877.985504,9622.677246,7550.100608,79827.150892
2877.988039,4441.235652,46929.056723,76456.330700
2877.990575,14211.954086,-35233.802839,78141.740796
2877.993111,5329.482782,-1036.288319,79061.055394
2877.995646,-1776.494261,-5625.565159,81206.122788
2877.998182,20873.807564,43079.985824,77682.083497
2878.000718,-444.123565,47373.180288,72166.195912
2878.003253,10658.965565,-14211.954086,80440.027290
2878.005789,7994.224174,-10362.883188,79214.274493
2878.008324,4589.276840,444.123565,81665.780087
2878.010860,12879.583391,-8142.265362,82278.656485
2878.013396,-4293.194464,32865.143825,74617.701505
2878.015941,6069.688724,-444.123565,75383.797003
2878.018487,-2664.741391,7402.059420,78294.959896
2878.021032,4589.276840,14211.954086,81972.218286
2878.023578,9030.512492,3552.988522,82431.875585
2878.026124,-4737.318029,-17912.983796,76915.987999
2878.028669,-8586.388927,-7846.182985,74924.139704
2878.031215,3552.988522,-12287.418637,81665.780087
2878.033760,-6217.729913,5033.400406,81972.218286
2878.036306,-1628.453072,-4441.235652,81818.999186
2878.038852,-2516.700203,2664.741391,76609.549800
2878.041397,-12287.418637,-3997.112087,74770.920605
2878.043943,-1332.370696,-3108.864956,81206.122788
2878.046488,3701.029710,-444.123565,81818.999186
2878.049034,-6513.812290,-17024.736666,79214.274493
2878.051580,-296.082377,-11991.336260,77222.426198
2878.054125,1184.329507,-47965.345042,79673.931792
2878.056671,-9178.553681,14656.077652,78601.398095
2878.059217,-6661.853478,-4737.318029,81206.122788
2878.061762,592.164754,-34049.473332,83197.971083
2878.064308,-28719.990550,56255.651592,75843.454302
2878.066853,-25463.084405,-25759.166782,81512.560987
2878.069399,-3552.988522,7402.059420,81818.999186
2878.071945,-26647.413912,11695.253884,79367.493593
2878.074490,-7698.141797,-9326.594869,79673.931792
2878.077036,1776.494261,11991.336260,77682.083497
2878.079581,-22354.219448,-8734.430116,75996.673402
2878.082127,0.000000,2516.700203,81206.122788
2878.084673,-7994.224174,6809.894666,81512.560987
2878.087218,2368.659014,-7254.018232,82431.875585
2878.089764,-3404.947333,-7402.059420,77988.521696
2878.092309,-6069.688724,148.041188,75077.358804
2878.094855,-3256.906145,21317.931130,77222.426198
2878.097401,3256.906145,13767.830521,83504.409282
2878.099946,2664.741391,4441.235652,79673.931792
2878.102492,-1036.288319,7994.224174,74924.139704
2878.105037,-4441.235652,-10510.924376,78294.959896
2878.107583,296.082377,9622.677246,80593.246390
2878.110129,-148.041188,15544.324782,80286.808190
2878.112674,-2664.741391,4293.194464,81052.903688
2878.115220,-2220.617826,-26203.290347,77988.521696
2878.117774,-13323.706956,-53886.992578,81972.218286
2878.120328,-24426.796086,54183.074954,77682.083497
2878.122882,-16284.530724,-18505.148550,83657.628382
2878.125435,5477.523971,88528.630663,78754.617194
2878.127989,-15840.407159,-23982.672521,72779.072310
2878.130543,32272.979071,-13323.706956,77835.302597
2878.133097,-6365.771101,15544.324782,81665.780087
2878.135651,-8882.471304,-34937.720462,83810.847481
2878.138205,23982.672521,11251.130318,81359.341888
2878.140759,-15248.242405,17912.983796,72012.976812
2878.143313,11695.253884,5773.606348,77835.302597
2878.145866,-3701.029710,-2516.700203,78601.398095
2878.148420,2368.659014,8882.471304,80133.589091
2878.150974,11695.253884,8882.471304,82431.875585
2878.153528,-10658.965565,3404.947333,75996.673402
2878.156082,-1924.535449,-15100.201217,77682.083497
2878.158636,-2220.617826,1184.329507,78448.178995
2878.161190,-7402.059420,-18357.107362,80899.684589
2878.163744,8734.430116,7550.100608,82891.532884
2878.166297,-11399.171507,4441.235652,73851.606007
2878.168851,-1036.288319,-11251.130318,75996.673402
2878.171405,-2072.576638,7105.977043,81665.780087
2878.173959,-3256.906145,-20873.807564,82125.437386
2878.176513,148.041188,-10362.883188,82431.875585
2878.179067,-7698.141797,-14656.077652,76149.892501
2878.181621,2220.617826,-38342.667796,79520.712692
2878.184175,-10066.800811,50778.127621,79367.493593
2878.186729,-8290.306550,-32272.979071,81206.122788
2878.189282,28127.825796,42635.862259,79520.712692
2878.191836,4293.194464,-87196.259968,78907.836294
2878.194390,-7402.059420,37602.461854,74617.701505
2878.196944,16580.613101,-13471.748144,83657.628382
2878.199498,2664.741391,-8586.388927,78448.178995
2878.202052,-4441.235652,18209.066173,76915.987999
2878.204606,16136.489536,-23538.548956,78601.398095
2878.207160,-12139.377449,2664.741391,77528.864398
2878.209713,-1036.288319,-11695.253884,81359.341888
2878.212267,444.123565,9622.677246,79827.150892
2878.214821,-7698.141797,4737.318029,79520.712692
2878.217375,1184.329507,-19393.395680,79520.712692
2878.219935,-6513.812290,24130.713709,75996.673402
2878.222494,740.205942,6217.729913,80440.027290
2878.225054,11103.089130,23538.548956,81359.341888
2878.227613,-6513.812290,2812.782580,75843.454302
2878.230173,-296.082377,11399.171507,77375.645298
2878.232732,-4441.235652,592.164754,78448.178995
2878.235292,-6069.688724,-4737.318029,82891.532884
2878.237851,5773.606348,7846.182985,81972.218286
2878.240411,-6365.771101,29164.114115,73851.606007
2878.242970,4145.153275,42487.821071,75077.358804
2878.245530,4145.153275,32421.020260,76609.549800
2878.248089,3552.988522,-3404.947333,81818.999186
2878.250649,12287.418637,-22058.137072,82125.437386
2878.253208,-16728.654289,25759.166782,78294.959896
2878.255768,-148.041188,-54479.157331,79827.150892
2878.258327,-21762.054695,36122.049970,76915.987999
2878.260887,-5625.565159,2516.700203,82278.656485
2878.263446,12435.459826,7105.977043,81818.999186
2878.266006,-16728.654289,26795.455100,74770.920605
2878.268566,2516.700203,11547.212695,78141.740796
2878.271125,-2072.576638,18505.148550,77988.521696
2878.273685,-5477.523971,148.041188,80133.589091
2878.276244,3997.112087,9030.512492,81818.999186
2878.278804,-6661.853478,11251.130318,77528.864398
2878.281363,-148.041188,-16432.571912,78141.740796
2878.283923,-10066.800811,-17912.983796,79367.493593
2878.286482,2664.741391,-1628.453072,82891.532884
2878.289042,-5329.482782,5033.400406,79367.493593
2878.291601,444.123565,13767.830521,77835.302597
2878.294161,-6513.812290,-1184.329507,74924.139704
2878.296720,-4589.276840,-14211.954086,79827.150892
2878.299280,3552.988522,-12435.459826,83964.066581
2878.301839,-148.041188,-13915.871710,79367.493593
2878.304399,-4737.318029,2368.659014,74617.701505
2878.306958,444.123565,14211.954086,75230.577904
2878.309518,11991.336260,-52998.745447,81206.122788
2878.312077,-592.164754,11251.130318,80286.808190
2878.314637,-2960.823768,-13027.624579,81359.341888
2878.317196,-2516.700203,-54035.033766,82738.313784
2878.319756,-17616.901420,-10066.800811,77528.864398
2878.322320,-21465.972318,-9474.636058,77528.864398
2878.324885,-6217.729913,15988.448347,85036.600278
2878.327449,-14804.118840,740.205942,79980.369991
2878.330013,-7402.059420,-7402.059420,77682.083497
2878.332578,-3552.988522,16728.654289,76915.987999
2878.335142,-7105.977043,-740.205942,79827.150892
2878.337706,-6957.935855,10658.965565,79673.931792
2878.340271,-4145.153275,-2516.700203,80286.808190
2878.342835,1332.370696,-10214.842000,80593.246390
2878.345399,-5625.565159,-1480.411884,77069.207099
2878.347964,-3701.029710,2516.700203,78907.836294
2878.350528,5773.606348,28719.990550,80133.589091
2878.353092,-6809.894666,-4293.194464,79214.274493
2878.355657,444.123565,17616.901420,77528.864398
2878.358221,-10362.883188,17912.983796,75537.016103
2878.360785,5329.482782,-22650.301825,83197.971083
2878.363350,5625.565159,20133.601622,81818.999186
2878.365914,-2072.576638,-592.164754,77682.083497
2878.368478,-15396.283594,-13915.871710,80593.246390
2878.371043,-17024.736666,-52554.621882,81206.122788
2878.373607,-29756.278868,71207.811620,76915.987999
2878.376171,-13619.789333,-2220.617826,83504.409282
2878.378736,5477.523971,75945.129649,78601.398095
2878.381300,-8882.471304,-6957.935855,74158.044206
2878.383864,30496.484810,-17764.942608,77528.864398
2878.386429,-11103.089130,6957.935855,77682.083497
2878.388993,7846.182985,-23834.631332,85343.038477
2878.391557,23242.466579,-8882.471304,81512.560987
2878.394122,-7254.018232,22946.384202,72779.072310
2878.396686,7254.018232,4441.235652,78141.740796
2878.399250,-3997.112087,3404.947333,78141.740796
2878.401815,6661.853478,10807.006753,79827.150892
2878.404379,14359.995275,6661.853478,81359.341888
2878.406943,-3256.906145,-2960.823768,75383.797003
2878.409508,-8142.265362,-8438.347739,77069.207099
2878.412072,2812.782580,-4885.359217,81512.560987
2878.414636,-5773.606348,-2368.659014,80746.465489
2878.417201,4885.359217,10066.800811,81512.560987
2878.419765,-6365.771101,296.082377,75230.577904
2878.422329,-8290.306550,-10510.924376,76303.111601
2878.424888,-592.164754,-11103.089130,85496.257577
2878.427455,5477.523971,-13767.830521,80746.465489
2878.430022,-7698.141797,-19245.354492,80593.246390
2878.432590,-16136.489536,-34345.555709,77988.521696
2878.435157,-17912.983796,88824.713040,75383.797003
2878.437724,-11547.212695,-51962.457128,84730.162079
2878.440291,-296.082377,-50926.168810,86875.229473
2878.442858,-35677.926404,25759.166782,77222.426198
2878.445425,-8142.265362,-148.041188,79061.055394
2878.447992,-11695.253884,19985.560434,81206.122788
2878.450559,-23094.425390,9326.594869,78141.740796
2878.453126,-9770.718434,-14804.118840,82125.437386
2878.455694,11251.130318,-9030.512492,82431.875585
2878.458261,-26203.290347,-9178.553681,74770.920605
2878.460828,-10362.883188,6809.894666,77835.302597
2878.463395,2516.700203,16136.489536,81972.218286
2878.465962,-4145.153275,-9918.759623,81359.341888
2878.468529,-3849.070898,-12583.501014,81665.780087
2878.471096,-6809.894666,1924.535449,75383.797003
2878.473663,-5921.647536,9030.512492,77222.426198
2878.476230,3849.070898,23982.672521,81359.341888
2878.478798,-5033.400406,7550.100608,78601.398095
2878.481365,2368.659014,4885.359217,78141.740796
2878.483932,-3701.029710,2072.576638,77835.302597
2878.486499,-10362.883188,-7550.100608,80286.808190
2878.489066,5625.565159,11399.171507,80899.684589
2878.491633,-11547.212695,-1924.535449,80899.684589
2878.494200,-3552.988522,-42931.944636,80899.684589
2878.496767,-11399.171507,22354.219448,76915.987999
2878.499334,-16580.613101,19837.519246,75843.454302
2878.501902,7698.141797,-2516.700203,84423.723880
2878.504469,-12287.418637,30348.443622,80593.246390
2878.507036,-3849.070898,32272.979071,70634.004916
2878.509603,14508.036463,148.041188,79980.369991
2878.512170,-2664.741391,-5773.606348,79061.055394
2878.514737,6365.771101,-2812.782580,83504.409282
2878.517304,2072.576638,-7846.182985,81052.903688
2878.519871,-5921.647536,3552.988522,74158.044206
2878.522439,-2220.617826,13175.665768,76762.768900
2878.525006,-6513.812290,9326.594869,77528.864398
2878.527535,740.205942,16728.654289,81359.341888
2878.530065,2220.617826,-2516.700203,80440.027290
2878.532595,-4441.235652,-20725.766376,78907.836294
2878.535125,-1184.329507,-2812.782580,76609.549800
2878.537654,-6809.894666,-3552.988522,79214.274493
2878.540184,7105.977043,13767.830521,83657.628382
2878.542714,-4441.235652,5329.482782,76609.549800
2878.545244,-148.041188,-17024.736666,76149.892501
2878.547773,-444.123565,-6661.853478,79673.931792
2878.550303,-5033.400406,-29312.155303,82891.532884
2878.552833,6809.894666,17320.819043,79980.369991
2878.555363,7105.977043,43968.232955,74924.139704
2878.557892,7402.059420,-47521.221476,76762.768900
2878.560422,2220.617826,16284.530724,77528.864398
2878.562952,-1480.411884,-11991.336260,79520.712692
2878.565482,14952.160028,-15544.324782,83504.409282
2878.568011,18357.107362,-3552.988522,79367.493593
2878.570541,-6069.688724,-2220.617826,72779.072310
2878.573071,8882.471304,-17320.819043,78294.959896
2878.575601,-148.041188,-19097.313304,81206.122788
2878.578130,-7550.100608,-16284.530724,80286.808190
2878.580660,2812.782580,-296.082377,80440.027290
2878.583190,-13619.789333,8438.347739,75996.673402
2878.585720,-4885.359217,13471.748144,76609.549800
2878.588249,-6809.894666,-3256.906145,80746.465489
2878.590779,-444.123565,-18949.272115,84270.504780
2878.593309,1036.288319,12287.418637,79827.150892
2878.595839,-11399.171507,26647.413912,75077.358804
2878.598368,2812.782580,15988.448347,78754.617194
2878.600898,-9770.718434,14063.912898,76609.549800
2878.603428,1036.288319,7105.977043,80593.246390
2878.605958,7105.977043,-10066.800811,82278.656485
2878.608487,-15248.242405,-2516.700203,78601.398095
2878.611017,3256.906145,17468.860231,76456.330700
2878.613547,-10807.006753,2368.659014,79214.274493
2878.616077,-10066.800811,-13027.624579,82278.656485
2878.618606,-18357.107362,62917.505070,80593.246390
2878.621136,-7698.141797,-592.164754,77835.302597
2878.623666,2960.823768,40563.285622,78754.617194
2878.626196,-4885.359217,6513.812290,79520.712692
2878.628736,19689.478057,-1924.535449,79520.712692
2878.631276,-7846.182985,20281.642811,78294.959896
2878.633816,-148.041188,-3701.029710,79061.055394
2878.636356,3849.070898,-740.205942,79673.931792
2878.638896,-11103.089130,12731.542202,79367.493593
2878.641436,2072.576638,4885.359217,80593.246390
2878.643976,-10214.842000,8586.388927,77988.521696
2878.646516,-1776.494261,18209.066173,77069.207099
2878.649056,-3997.112087,20281.642811,78141.740796
2878.651596,-1036.288319,-23686.590144,81972.218286
2878.654136,4441.235652,-6957.935855,80133.589091
2878.656676,-4293.194464,-21317.931130,79673.931792
2878.659216,-7254.018232,2960.823768,78294.959896
2878.661756,-1036.288319,14359.995275,78294.959896
2878.664296,-4885.359217,-7846.182985,79214.274493
2878.666836,-1036.288319,-2516.700203,79827.150892
2878.669376,-1036.288319,-23390.507767,81512.560987
2878.671916,-1036.288319,-2516.700203,76915.987999
2878.674456,-592.164754,40563.285622,73698.386908
2878.676996,3849.070898,44412.356520,77988.521696
2878.679536,-7402.059420,-47965.345042,83044.751983
2878.682076,4145.153275,-1924.535449,79214.274493
2878.684616,-9178.553681,53294.827824,69561.471218
2878.687156,43524.109390,-63509.669824,81206.122788
2878.689696,14508.036463,22058.137072,75383.797003
2878.692236,7402.059420,-26351.331535,78601.398095
2878.694776,22798.343014,-19837.519246,80133.589091
2878.697316,-10066.800811,10807.006753,75996.673402
2878.699857,3256.906145,-18357.107362,80746.465489
2878.702397,2368.659014,4293.194464,80440.027290
2878.704937,-3701.029710,14211.954086,78754.617194
2878.707477,-7698.141797,-9178.553681,77835.302597
2878.710017,-7698.141797,-296.082377,77682.083497
2878.712557,1036.288319,2812.782580,79367.493593
2878.715097,-10658.965565,17912.983796,79061.055394
2878.717637,9030.512492,18505.148550,82891.532884
2878.720177,-4145.153275,13471.748144,75077.358804
2878.722717,-4293.194464,6069.688724,75843.454302
2878.725257,-3552.988522,9474.636058,78448.178995
2878.727797,1628.453072,-1924.535449,83810.847481
2878.730344,6957.935855,-3849.070898,84576.942979
2878.732892,-6365.771101,37602.461854,71706.538613
2878.735439,7254.018232,37454.420665,76303.111601
2878.737987,6513.812290,-85863.889272,85802.695776
2878.740534,1036.288319,21465.972318,80746.465489
2878.743081,-17320.819043,-70763.688055,81052.903688
2878.745629,16580.613101,72392.141128,77988.521696
2878.748176,-26795.455100,25315.043216,72319.415011
2878.750724,2812.782580,2664.741391,78141.740796
2878.753271,-15248.242405,28571.949361,81052.903688
2878.755819,3701.029710,5033.400406,82278.656485
2878.758366,3108.864956,4293.194464,79061.055394
2878.760913,-9178.553681,6957.935855,74311.263306
2878.763461,1036.288319,13619.789333,77222.426198
2878.766008,4589.276840,11843.295072,82585.094684
2878.768556,-2516.700203,2516.700203,79367.493593
2878.771103,-1036.288319,-16284.530724,79367.493593
2878.773651,-2812.782580,-11399.171507,75383.797003
2878.776198,-444.123565,-18357.107362,79673.931792
2878.778745,1332.370696,-1036.288319,81818.999186
2878.781293,-3849.070898,6217.729913,79214.274493
2878.783840,3108.864956,-9622.677246,78448.178995
2878.786388,-13767.830521,4145.153275,75383.797003
2878.788935,-2368.659014,-22798.343014,82125.437386
2878.791483,1924.535449,-1332.370696,81665.780087
2878.794030,-4441.235652,38786.791361,77375.645298
2878.796577,-7402.059420,-4293.194464,76915.987999
2878.799125,5773.606348,-6809.894666,79367.493593
2878.801672,-4589.276840,2960.823768,77988.521696
2878.804220,6217.729913,-63657.711012,87028.448573
2878.806767,-2516.700203,-21169.889941,82431.875585
2878.809315,-19985.560434,6069.688724,72932.291410
2878.811862,-3849.070898,3404.947333,79061.055394
2878.814409,-10955.047942,11843.295072,78294.959896
2878.816957,-3997.112087,-21021.848753,80133.589091
2878.819504,6069.688724,-592.164754,82585.094684
2878.822052,-8142.265362,-0.000000,76609.549800
2878.824599,-7846.182985,3552.988522,76915.987999
2878.827147,6069.688724,-6661.853478,81512.560987
2878.829694,-1776.494261,-2220.617826,79980.369991
2878.832248,-1332.370696,7698.141797,79214.274493
2878.834802,1036.288319,21910.095883,77069.207099
2878.837355,-4145.153275,592.164754,76762.768900
2878.839909,-4737.318029,28127.825796,78141.740796
2878.842463,-2368.659014,10362.883188,79980.369991
2878.845017,8142.265362,-15396.283594,82125.437386
2878.847570,-6365.771101,22946.384202,78448.178995
2878.850124,3256.906145,16432.571912,73698.386908
2878.852678,-2812.782580,-12435.459826,82125.437386
2878.855232,-30940.608376,53886.992578,79980.369991
2878.857785,-4737.318029,3256.906145,82278.656485
2878.860339,-1332.370696,-22206.178260,78141.740796
2878.862893,-27831.743419,36714.214723,75996.673402
2878.865446,-13471.748144,11399.171507,81818.999186
2878.868000,-3256.906145,8290.306550,81972.218286
2878.870554,-8290.306550,26499.372724,78294.959896
2878.873108,-296.082377,-18061.024985,79980.369991
2878.875661,-4293.194464,28571.949361,77222.426198
2878.878215,-4145.153275,-5773.606348,79214.274493
2878.880769,-6365.771101,1332.370696,80746.465489
2878.883323,-444.123565,25907.207970,79367.493593
2878.885876,-12435.459826,-5773.606348,78754.617194
2878.888430,-7698.141797,-22206.178260,79061.055394
2878.890984,-3552.988522,-7994.224174,78754.617194
2878.893538,-1924.535449,-7105.977043,83044.751983
2878.896091,-6957.935855,-5329.482782,78754.617194
2878.898645,-1776.494261,16580.613101,77988.521696
2878.901199,-5181.441594,-3849.070898,76609.549800
2878.903753,-5181.441594,-8586.388927,79214.274493
2878.906306,-2220.617826,-7994.224174,83351.190182
2878.908860,-888.247130,-28275.866984,82431.875585
2878.911414,-1332.370696,-11251.130318,75843.454302
2878.913968,3552.988522,-39230.914926,79061.055394
2878.916521,-16580.613101,39230.914926,77988.521696
2878.919075,4441.235652,-148.041188,81359.341888
2878.921629,-8734.430116,50630.086433,77528.864398
2878.924183,5181.441594,2368.659014,76149.892501
2878.926736,6957.935855,-148.041188,80286.808190
2878.929290,-7846.182985,-5921.647536,79827.150892
2878.931844,15396.283594,-21021.848753,82891.532884
2878.934402,-4145.153275,-10214.842000,80593.246390
2878.936960,1776.494261,-20577.725188,75690.235202
2878.939518,1332.370696,1036.288319,76915.987999
2878.942076,-3997.112087,12287.418637,81206.122788
2878.944634,8142.265362,-17468.860231,83197.971083
2878.947192,1776.494261,9770.718434,77069.207099
2878.949750,-7550.100608,-0.000000,76915.987999
2878.952308,4293.194464,22502.260637,78754.617194
2878.954866,-5477.523971,-1332.370696,79980.369991
2878.957424,6661.853478,15544.324782,80440.027290
2878.959982,-11695.253884,17320.819043,76303.111601
2878.962540,3256.906145,-9326.594869,81206.122788
2878.965098,-1924.535449,14804.118840,79827.150892
2878.967656,-6957.935855,10955.047942,78294.959896
2878.970214,-3256.906145,56403.692780,80440.027290
2878.972772,-3701.029710,39823.079680,75690.235202
2878.975331,23982.672521,-31828.855506,81665.780087
2878.977889,-3701.029710,57143.898722,73851.606007
2878.980447,-7402.059420,15544.324782,78141.740796
2878.983005,49889.880491,-24278.754898,81052.903688
2878.985563,-12287.418637,34937.720462,74004.825107
2878.988121,14804.118840,-35233.802839,79520.712692
2878.990679,7402.059420,23538.548956,79827.150892
2878.993237,-6809.894666,-1036.288319,78294.959896
2878.995795,7698.141797,-5625.565159,79061.055394
2878.998353,-2516.700203,-592.164754,77988.521696
2879.000911,-888.247130,13323.706956,77528.864398
2879.003469,-1776.494261,9178.553681,79827.150892
2879.006027,-13915.871710,-18209.066173,80899.684589
2879.008585,13767.830521,3552.988522,80746.465489
2879.011143,-10807.006753,-31976.896694,77375.645298
2879.013701,1480.411884,9622.677246,80133.589091
2879.016259,-4441.235652,-3108.864956,77682.083497
2879.018817,-2072.576638,-5033.400406,79367.493593
2879.021375,5181.441594,5033.400406,81972.218286
2879.023933,-5477.523971,-35974.008781,81665.780087
2879.026491,10510.924376,28868.031738,75383.797003
2879.029049,13471.748144,-21614.013506,79367.493593
2879.031607,4145.153275,-12879.583391,81818.999186
2879.034165,-1036.288319,-40563.285622,82738.313784
2879.036726,5625.565159,26351.331535,76915.987999
2879.039287,-24574.837274,4441.235652,74158.044206
2879.041848,5921.647536,1480.411884,83044.751983
2879.044408,-3256.906145,-7994.224174,78754.617194
2879.046969,-1776.494261,-24722.878463,78907.836294
2879.049530,9030.512492,7846.182985,79367.493593
2879.052091,-3849.070898,-29016.072926,78754.617194
2879.054651,148.041188,4293.194464,79214.274493
2879.057212,-888.247130,-5625.565159,80746.465489
2879.059773,7698.141797,-7698.141797,82431.875585
2879.062333,-2368.659014,-15396.283594,76303.111601
2879.064894,-5477.523971,14656.077652,75383.797003
2879.067455,-3404.947333,20725.766376,79827.150892
2879.070016,-1480.411884,9326.594869,80899.684589
2879.072576,2516.700203,18357.107362,78907.836294
2879.075137,-1332.370696,5329.482782,75690.235202
2879.077698,-740.205942,1480.411884,78294.959896
2879.080259,-6365.771101,14952.160028,79520.712692
2879.082819,-4885.359217,-3849.070898,80593.246390
2879.085380,3108.864956,3701.029710,77375.645298
2879.087941,5033.400406,-8438.347739,77222.426198
2879.090502,-5033.400406,3256.906145,76762.768900
2879.093062,3256.906145,4885.359217,81512.560987
2879.095623,5033.400406,17912.983796,79980.369991
2879.098184,-18209.066173,38786.791361,78448.178995
2879.100745,4589.276840,12139.377449,76915.987999
2879.103305,-14656.077652,12435.459826,76762.768900
2879.105866,-11547.212695,7698.141797,79980.369991
2879.108427,15988.448347,-5921.647536,82891.532884
2879.110987,-8142.265362,-148.041188,78907.836294
2879.113548,-4589.276840,14508.036463,76915.987999
2879.116109,3701.029710,14359.995275,79214.274493
2879.118670,-8290.306550,1332.370696,79827.150892
2879.121230,-5329.482782,-30348.443622,83504.409282
2879.123791,5477.523971,-2960.823768,80286.808190
2879.126352,-13767.830521,-14359.995275,77835.302597
2879.128913,3256.906145,-6957.935855,79673.931792
2879.131473,-5329.482782,24574.837274,77988.521696
2879.134034,-1628.453072,-14804.118840,79061.055394
2879.136595,8142.265362,2516.700203,81206.122788
2879.139158,-2960.823768,-30940.608376,81052.903688
2879.141721,6957.935855,-17616.901420,79061.055394
2879.144284,14359.995275,-27387.619854,79214.274493
2879.146848,-7846.182985,21614.013506,78907.836294
2879.149411,740.205942,-9770.718434,79980.369991
2879.151974,-296.082377,-51962.457128,80899.684589
2879.154537,-19393.395680,-32421.020260,80899.684589
2879.157100,-15396.283594,-4293.194464,79214.274493
2879.159664,-12435.459826,21465.972318,80440.027290
2879.162227,-17468.860231,13175.665768,79367.493593
2879.164790,-7698.141797,-2220.617826,77835.302597
2879.167353,-8142.265362,444.123565,79827.150892
2879.169916,-1924.535449,8438.347739,81512.560987
2879.172480,-8882.471304,1776.494261,79827.150892
2879.175043,1480.411884,-11399.171507,81206.122788
2879.177606,-3849.070898,16728.654289,77069.207099
2879.180169,-8290.306550,6069.688724,76456.330700
2879.182732,5181.441594,21021.848753,80440.027290
2879.185296,-5329.482782,-6661.853478,80133.589091
2879.187859,444.123565,21021.848753,78448.178995
2879.190422,-7550.100608,5181.441594,77222.426198
2879.192985,740.205942,-7994.224174,80746.465489
2879.195548,296.082377,23242.466579,79980.369991
2879.198112,-10658.965565,-19393.395680,80593.246390
2879.200675,13915.871710,-6365.771101,77682.083497
2879.203238,3701.029710,-17912.983796,78601.398095
2879.205801,-6069.688724,6217.729913,75383.797003
2879.208364,9918.759623,31680.814318,80746.465489
2879.210928,-592.164754,62769.463882,77375.645298
2879.213491,-3256.906145,-11991.336260,80286.808190
2879.216054,8290.306550,14063.912898,76609.549800
2879.218617,-5329.482782,-592.164754,78294.959896
2879.221182,1480.411884,592.164754,81206.122788
2879.223747,-1776.494261,13027.624579,78601.398095
2879.226312,2812.782580,888.247130,76303.111601
2879.228877,9178.553681,15988.448347,79061.055394
2879.231442,-8290.306550,8882.471304,78907.836294
2879.234007,-1184.329507,-27387.619854,81665.780087
2879.236572,1924.535449,-9770.718434,78754.617194
2879.239137,-1480.411884,-17468.860231,80133.589091
2879.241702,-740.205942,-9622.677246,78754.617194
2879.244267,-8882.471304,21021.848753,77835.302597
2879.246832,296.082377,-6513.812290,79980.369991
2879.249397,-3552.988522,148.041188,79214.274493
2879.251962,-4885.359217,-15544.324782,84423.723880
2879.254527,5329.482782,2812.782580,76456.330700
2879.257092,-8734.430116,76537.294403,73391.948708
2879.259657,5921.647536,-40711.326810,83197.971083
2879.262222,4145.153275,14359.995275,79520.712692
2879.264787,8438.347739,-9770.718434,72932.291410
2879.267352,27239.578666,-91933.577996,83964.066581
2879.269917,-11695.253884,19985.560434,74158.044206
2879.272482,6365.771101,-28127.825796,80286.808190
2879.275047,13767.830521,740.205942,80440.027290
2879.277612,-11695.253884,26795.455100,74617.701505
2879.280177,13915.871710,-11843.295072,80899.684589
2879.282742,-7550.100608,7846.182985,77835.302597
2879.285307,-9326.594869,12139.377449,78294.959896
2879.287872,2368.659014,-19541.436869,82125.437386
2879.290437,-3108.864956,24130.713709,77528.864398
2879.293002,0.000000,-9622.677246,75996.673402
2879.295566,1628.453072,33753.390955,79214.274493
2879.298131,-6957.935855,-6513.812290,80593.246390
2879.300696,8290.306550,22798.343014,78141.740796
2879.303261,-8734.430116,12287.418637,76915.987999
2879.305826,2812.782580,-15840.407159,81359.341888
2879.308391,-5773.606348,36566.173535,75537.016103
2879.310956,-1480.411884,-10066.800811,82738.313784
2879.313521,-6661.853478,40859.367998,77835.302597
2879.316086,-36862.255912,80534.406490,75077.358804
2879.318651,-3701.029710,35381.844028,78754.617194
2879.321216,14063.912898,-62177.299128,82278.656485
2879.323782,-22206.178260,16580.613101,80593.246390
2879.326349,-5625.565159,7994.224174,77835.302597
2879.328915,-10510.924376,-444.123565,78448.178995
2879.331481,-19985.560434,42339.779882,77682.083497
2879.334047,6069.688724,-6365.771101,82431.875585
2879.336613,-10362.883188,24426.796086,78601.398095
2879.339179,-17172.777854,-8142.265362,78294.959896
2879.341746,5625.565159,17468.860231,80440.027290
2879.344312,-9178.553681,16284.530724,77375.645298
2879.346878,-4589.276840,-24722.878463,81206.122788
2879.349444,6809.894666,-6661.853478,79980.369991
2879.352010,-6809.894666,-31976.896694,79520.712692
2879.354576,5477.523971,5773.606348,79673.931792
2879.357143,-10362.883188,740.205942,75383.797003
2879.359709,296.082377,-5033.400406,79827.150892
2879.362275,-5329.482782,-3997.112087,80899.684589
2879.364841,-5033.400406,-20725.766376,82278.656485
2879.367407,7550.100608,26499.372724,75230.577904
2879.369973,4293.194464,-14359.995275,75996.673402
2879.372539,11991.336260,-42487.821071,82738.313784
2879.375106,-4441.235652,97263.060779,74924.139704
2879.377672,31236.690752,-86159.971649,89939.611465
2879.380238,-57884.104664,7698.141797,78907.836294
2879.382804,-16432.571912,-25018.960840,79061.055394
2879.385370,34197.514520,296.082377,84270.504780
2879.387936,-34049.473332,27387.619854,75843.454302
2879.390503,26943.496289,-19097.313304,81818.999186
2879.393069,-5477.523971,148.041188,75996.673402
2879.395635,-12139.377449,-11547.212695,77375.645298
2879.398201,8882.471304,-12879.583391,82585.094684
2879.400767,-6957.935855,-1480.411884,81206.122788
2879.403333,-592.164754,15100.201217,77682.083497
2879.405900,-7550.100608,24426.796086,75383.797003
2879.408466,888.247130,14952.160028,79827.150892
2879.411032,-1628.453072,1776.494261,77222.426198
2879.413598,-4145.153275,17764.942608,79061.055394
2879.416164,3997.112087,-6809.894666,81818.999186
2879.418730,-10362.883188,6513.812290,76609.549800
2879.421297,-2368.659014,5625.565159,81206.122788
2879.423863,-9918.759623,-39082.873738,79980.369991
2879.426428,-5477.523971,18061.024985,79980.369991
2879.428994,-13619.789333,12287.418637,78448.178995
2879.431560,10214.842000,8586.388927,77682.083497
2879.434126,2960.823768,-55959.569215,83810.847481
2879.436692,-33753.390955,52998.745447,77682.083497
2879.439259,-1332.370696,15692.365970,79827.150892
2879.441825,-6069.688724,30792.567187,78448.178995
2879.444391,-15248.242405,9030.512492,77528.864398
2879.446957,6661.853478,11547.212695,79367.493593
2879.449523,-12879.583391,-5773.606348,79367.493593
2879.452090,3404.947333,18949.272115,79827.150892
2879.454656,-888.247130,23242.466579,79061.055394
2879.457222,-2220.617826,-18949.272115,78141.740796
2879.459788,4589.276840,-5329.482782,78601.398095
2879.462354,-3256.906145,-6217.729913,81206.122788
2879.464921,2516.700203,-23538.548956,81052.903688
2879.467487,-5773.606348,19097.313304,76609.549800
2879.470053,-2960.823768,-592.164754,76915.987999
2879.472619,-3108.864956,-11399.171507,79061.055394
2879.475185,6809.894666,-4885.359217,82125.437386
2879.477752,-11843.295072,-54923.280896,84423.723880
2879.480318,-19097.313304,-15840.407159,78141.740796
2879.482884,-17024.736666,33013.185013,77222.426198
2879.485450,-12435.459826,-2664.741391,80746.465489
2879.488016,-1332.370696,-30200.402434,84576.942979
2879.490583,-10362.883188,-30200.402434,81052.903688
2879.493149,-14359.995275,-8438.347739,76915.987999
2879.495715,-6513.812290,19541.436869,80440.027290
2879.498281,-10362.883188,-3552.988522,79367.493593
2879.500847,-8734.430116,-888.247130,79827.150892
2879.503414,-6513.812290,1332.370696,80286.808190
2879.505980,-9030.512492,-12139.377449,78601.398095
2879.508546,-6809.894666,4737.318029,79061.055394
2879.511112,-9622.677246,-19985.560434,80746.465489
2879.513678,4145.153275,20281.642811,80899.684589
2879.516245,-14211.954086,25167.002028,76915.987999
2879.518811,2960.823768,7105.977043,77222.426198
2879.521377,-4589.276840,5921.647536,75843.454302
2879.523943,-1480.411884,12731.542202,80593.246390
2879.526509,2368.659014,-11547.212695,81818.999186
2879.529040,-2960.823768,12583.501014,77988.521696
2879.531571,-444.123565,11399.171507,79061.055394
2879.534101,-12435.459826,-19837.519246,78141.740796
2879.536632,-20429.683999,52258.539505,79827.150892
2879.539163,-13471.748144,3108.864956,81972.218286
2879.541693,2072.576638,8290.306550,80286.808190
2879.544224,-1628.453072,-31384.731941,79367.493593
2879.546754,8882.471304,-148.041188,79673.931792
2879.549285,3997.112087,12139.377449,78754.617194
2879.551816,-3256.906145,-2664.741391,79673.931792
2879.554346,6513.812290,148.041188,80440.027290
2879.556877,-5477.523971,-2664.741391,79214.274493
2879.559408,-3701.029710,1332.370696,77069.207099
2879.561938,3997.112087,19393.395680,79061.055394
2879.564469,-6069.688724,18949.272115,79367.493593
2879.567000,1776.494261,-39230.914926,80133.589091
2879.569530,-3701.029710,4737.318029,77222.426198
2879.572061,-5625.565159,-10362.883188,79980.369991
2879.574591,11843.295072,-6957.935855,81512.560987
2879.577122,-5033.400406,22354.219448,77069.207099
2879.579653,-3552.988522,-8142.265362,77835.302597
2879.582183,-5477.523971,2960.823768,78907.836294
2879.584714,-3552.988522,-34049.473332,84423.723880
2879.587245,-9030.512492,-58328.228230,83044.751983
2879.589775,-17912.983796,10214.842000,79214.274493
2879.592306,-24426.796086,29164.114115,77528.864398
2879.594837,-4589.276840,-25463.084405,81359.341888
2879.597367,-38046.585419,85863.889272,78141.740796
2879.599898,-4441.235652,-24722.878463,81972.218286
2879.602429,-296.082377,-13175.665768,85802.695776
2879.604959,-26203.290347,28423.908173,75537.016103
2879.607490,-18801.230927,-15692.365970,77528.864398
2879.610020,9474.636058,9030.512492,81665.780087
2879.612551,-14211.954086,-10510.924376,78448.178995
2879.615082,-1776.494261,-2220.617826,81052.903688
2879.617612,5329.482782,-9326.594869,80133.589091
2879.620143,-4145.153275,-9770.718434,78448.178995
2879.622674,-4737.318029,21614.013506,78448.178995
2879.625204,-2220.617826,20873.807564,78141.740796
2879.627735,-3997.112087,4589.276840,79214.274493
2879.630273,-1332.370696,21169.889941,77528.864398
2879.632811,-4293.194464,8734.430116,77682.083497
2879.635349,-888.247130,-4441.235652,80593.246390
2879.637887,-8734.430116,11399.171507,83197.971083
2879.640424,10658.965565,740.205942,77528.864398
2879.642962,-3256.906145,-67506.781910,80133.589091
2879.645500,-16876.695478,35233.802839,77222.426198
2879.648038,-7994.224174,76981.417968,75996.673402
2879.650576,5477.523971,-47373.180288,83964.066581
2879.653114,9030.512492,14359.995275,79520.712692
2879.655652,-14804.118840,1776.494261,77835.302597
2879.658190,9474.636058,-8586.388927,78294.959896
2879.660728,2960.823768,23982.672521,79214.274493
2879.663266,-5477.523971,7402.059420,79061.055394
2879.665803,8438.347739,-2812.782580,80133.589091
2879.668341,592.164754,30940.608376,75690.235202
2879.670879,-7846.182985,12139.377449,77375.645298
2879.673417,2072.576638,-12435.459826,79980.369991
2879.675955,-4145.153275,-6957.935855,78754.617194
2879.678493,9326.594869,-3701.029710,82125.437386
2879.681031,-7402.059420,-16432.571912,77682.083497
2879.683569,-592.164754,14804.118840,77835.302597
2879.686107,-1924.535449,-4441.235652,77988.521696
2879.688645,-3108.864956,-1036.288319,81052.903688
2879.691182,6513.812290,-3849.070898,79827.150892
2879.693720,-5329.482782,18949.272115,76609.549800
2879.696258,5181.441594,18949.272115,76762.768900
2879.698796,17024.736666,-69135.234983,81206.122788
2879.701334,-2072.576638,56107.610404,75690.235202
2879.703872,29164.114115,-64397.916954,86415.572174
2879.706410,-35085.761651,-22650.301825,77375.645298
2879.708948,-2220.617826,-22502.260637,80899.684589
2879.711486,14063.912898,6661.853478,81359.341888
2879.714024,-39230.914926,13619.789333,75996.673402
2879.716561,-3404.947333,-8438.347739,79520.712692
2879.719099,5773.606348,-5329.482782,78141.740796
2879.721637,-9918.759623,21169.889941,77528.864398
2879.724175,8142.265362,-24426.796086,82278.656485
2879.726713,-1776.494261,9474.636058,79827.150892
2879.729251,0.000000,12731.542202,78601.398095
2879.731794,-296.082377,22946.384202,76149.892501
2879.734338,-7698.141797,2812.782580,78448.178995
2879.736881,5181.441594,14211.954086,78754.617194
2879.739424,-5329.482782,10807.006753,77222.426198
2879.741968,6217.729913,-12731.542202,83197.971083
2879.744511,-2072.576638,21614.013506,75690.235202
2879.747055,-1036.288319,-27387.619854,80286.808190
2879.749598,-7105.977043,26203.290347,79061.055394
2879.752141,-20577.725188,1776.494261,77682.083497
2879.754685,1924.535449,15988.448347,81512.560987
2879.757228,-21910.095883,39823.079680,77988.521696
2879.759771,-17912.983796,30940.608376,80286.808190
2879.762315,12139.377449,9178.553681,82431.875585
2879.764858,-20429.683999,28868.031738,76303.111601
2879.767402,5033.400406,-31680.814318,79520.712692
2879.769945,-3552.988522,15248.242405,78754.617194
2879.772488,-7550.100608,2516.700203,79673.931792
2879.775032,1628.453072,15988.448347,80899.684589
2879.777575,-2516.700203,36566.173535,78448.178995
2879.780118,-6217.729913,-37750.503042,77835.302597
2879.782662,5625.565159,-2368.659014,78754.617194
2879.785205,-6513.812290,-9178.553681,79827.150892
2879.787749,3849.070898,-26795.455100,81818.999186
2879.790292,-10955.047942,16876.695478,77682.083497
2879.792835,1480.411884,3552.988522,78294.959896
2879.795379,-5625.565159,-9622.677246,77069.207099
2879.797922,-888.247130,3701.029710,79214.274493
2879.800465,8882.471304,16728.654289,79367.493593
2879.803009,-6957.935855,10955.047942,78141.740796
2879.805552,7550.100608,-3108.864956,78754.617194
2879.808095,-2812.782580,21910.095883,77069.207099
2879.810639,15840.407159,38342.667796,75537.016103
2879.813182,25907.207970,-38194.626607,83657.628382
2879.815726,4293.194464,-20281.642811,78141.740796
2879.818269,10214.842000,-30644.525999,77988.521696
2879.820812,17024.736666,-7105.977043,78141.740796
2879.823356,-7846.182985,9030.512492,76609.549800
2879.825899,7402.059420,-2072.576638,78754.617194
2879.828442,3404.947333,2072.576638,80593.246390
2879.830986,-148.041188,-28423.908173,81206.122788
2879.833533,-3701.029710,23982.672521,77528.864398
2879.836080,-8438.347739,32421.020260,78601.398095
2879.838627,7550.100608,13915.871710,81052.903688
2879.841174,-10362.883188,2220.617826,75230.577904
2879.843722,2220.617826,9474.636058,79367.493593
2879.846269,-5773.606348,-4293.194464,80746.465489
2879.848816,-4737.318029,-21910.095883,82125.437386
2879.851363,-8142.265362,17320.819043,82278.656485
2879.853910,-8734.430116,-26055.249158,78141.740796
2879.856457,-3997.112087,18801.230927,76762.768900
2879.859005,-18209.066173,5181.441594,77682.083497
2879.861552,11843.295072,52554.621882,78141.740796
2879.864099,3108.864956,6069.688724,79367.493593
2879.866646,-4589.276840,27683.702231,80133.589091
2879.869193,1924.535449,8586.388927,76303.111601
2879.871740,888.247130,-4589.276840,77528.864398
2879.874288,-6957.935855,7105.977043,79980.369991
2879.876835,3997.112087,9178.553681,80286.808190
2879.879382,6809.894666,-2220.617826,78907.836294
2879.881929,3997.112087,22946.384202,77835.302597
2879.884476,2220.617826,3552.988522,76762.768900
2879.887023,-1332.370696,-24870.919651,78907.836294
2879.889571,1924.535449,-5477.523971,81972.218286
2879.892118,-1480.411884,-22058.137072,80286.808190
2879.894665,-1184.329507,14063.912898,78754.617194
2879.897212,-1184.329507,-444.123565,76303.111601
2879.899759,-1332.370696,-3997.112087,77988.521696
2879.902306,3108.864956,-17764.942608,85649.476676
2879.904854,-7550.100608,-71355.852809,83810.847481
2879.907401,-15396.283594,-23538.548956,78141.740796
2879.909948,-31532.773129,34049.473332,76456.330700
2879.912495,-8290.306550,444.123565,80286.808190
2879.915042,-16580.613101,86159.971649,77988.521696
2879.917589,7105.977043,-14804.118840,80133.589091
2879.920137,7846.182985,-15248.242405,81512.560987
2879.922684,-18357.107362,15692.365970,77375.645298
2879.925231,-7402.059420,-15692.365970,80133.589091
2879.927778,740.205942,18949.272115,79520.712692
2879.930325,-6513.812290,-11251.130318,78294.959896
2879.932872,2664.741391,444.123565,78907.836294
2879.935423,-4589.276840,-18505.148550,80593.246390
2879.937974,4885.359217,2072.576638,80746.465489
2879.940525,-3997.112087,24130.713709,77375.645298
2879.943076,7105.977043,21169.889941,79367.493593
2879.945626,-13027.624579,-2960.823768,75077.358804
2879.948177,-2072.576638,13915.871710,78141.740796
2879.950728,-592.164754,-0.000000,82278.656485
2879.953279,-4737.318029,-16580.613101,79827.150892
2879.955829,-12879.583391,10658.965565,81818.999186
2879.958380,-4737.318029,-28571.949361,77835.302597
2879.960931,-29608.237680,69431.317360,76456.330700
2879.963482,-15396.283594,-3849.070898,82891.532884
2879.966033,-148.041188,-27831.743419,81206.122788
2879.968583,-44856.480085,74760.800142,78754.617194
2879.971134,-1924.535449,-11991.336260,82431.875585
2879.973685,-14804.118840,54923.280896,77682.083497
2879.976236,-29164.114115,35529.885216,77528.864398
2879.978787,5921.647536,-888.247130,80899.684589
2879.981337,-26055.249158,10066.800811,78141.740796
2879.983888,-3404.947333,17320.819043,81206.122788
2879.986439,-3552.988522,10955.047942,78601.398095
2879.988990,-2960.823768,-2812.782580,81052.903688
2879.991541,-1184.329507,-16580.613101,79061.055394
2879.994091,-3701.029710,-11547.212695,81206.122788
2879.996642,-9030.512492,-19245.354492,78601.398095
2879.999193,-148.041188,14211.954086,79827.150892
2880.001744,-2812.782580,-148.041188,79520.712692
2880.004294,2220.617826,6069.688724,77682.083497
2880.006845,740.205942,-35825.967593,82278.656485
2880.009396,-3108.864956,-67802.864287,83504.409282
2880.011947,-12731.542202,22798.343014,77988.521696
2880.014498,-23834.631332,23094.425390,77988.521696
2880.017048,12139.377449,18209.066173,80593.246390
2880.019599,3849.070898,-60696.887244,79367.493593
2880.022150,-4737.318029,4589.276840,75077.358804
2880.024701,5773.606348,-9622.677246,82431.875585
2880.027252,296.082377,-9030.512492,80133.589091
2880.029802,-8586.388927,1480.411884,78294.959896
2880.032353,1332.370696,-2072.576638,79827.150892
2880.034904,-2072.576638,16136.489536,78294.959896
2880.037457,4293.194464,-27239.578666,79367.493593
2880.040010,-5033.400406,-15544.324782,81206.122788
2880.042563,-1776.494261,23538.548956,78907.836294
2880.045116,-2812.782580,23834.631332,76456.330700
2880.047669,1480.411884,21021.848753,77682.083497
2880.050222,-7402.059420,3256.906145,77682.083497
2880.052775,-1036.288319,12287.418637,79980.369991
2880.055328,148.041188,2368.659014,81206.122788
2880.057881,-1184.329507,-17320.819043,80593.246390
2880.060434,-18505.148550,-3997.112087,81359.341888
2880.062987,5921.647536,-38046.585419,79980.369991
2880.065540,-21465.972318,71503.893997,77069.207099
2880.068093,-5033.400406,-59364.516548,84423.723880
2880.070646,-26055.249158,64545.958142,74770.920605
2880.073199,-20725.766376,21021.848753,79061.055394
2880.075752,20281.642811,14211.954086,81818.999186
2880.078305,-15248.242405,42191.738694,75230.577904
2880.080858,10955.047942,-2368.659014,78448.178995
2880.083411,-5625.565159,-7550.100608,78907.836294
2880.085964,-3108.864956,7402.059420,79061.055394
2880.088516,16728.654289,-18949.272115,82278.656485
2880.091069,-3256.906145,16876.695478,78448.178995
2880.093622,-6661.853478,-23242.466579,77222.426198
2880.096175,16136.489536,-7698.141797,80746.465489
2880.098728,-13767.830521,-21021.848753,78448.178995
2880.101281,7550.100608,-5773.606348,82431.875585
2880.103834,148.041188,-444.123565,78141.740796
2880.106387,-7698.141797,2960.823768,76303.111601
2880.108940,-5625.565159,-11103.089130,82278.656485
2880.111493,4293.194464,-11695.253884,79520.712692
2880.114046,5773.606348,-33901.432144,80440.027290
2880.116599,-1184.329507,13175.665768,78601.398095
2880.119152,-9178.553681,16136.489536,77682.083497
2880.121705,-3997.112087,-63213.587447,81206.122788
2880.124258,7994.224174,-40711.326810,78907.836294
2880.126811,-16432.571912,-3404.947333,77528.864398
2880.129364,19985.560434,-26795.455100,83351.190182
2880.131917,1628.453072,8290.306550,77222.426198
2880.134470,-11251.130318,13767.830521,74617.701505
2880.137023,-7698.141797,5329.482782,79214.274493
2880.139544,-3404.947333,7698.141797,81665.780087
2880.142065,-5625.565159,-27091.537477,83044.751983
2880.144586,-9474.636058,16432.571912,77375.645298
2880.147108,-1332.370696,17172.777854,77528.864398
2880.149629,4737.318029,23242.466579,79673.931792
2880.152150,-11399.171507,3552.988522,76456.330700
2880.154671,7402.059420,10955.047942,80286.808190
2880.157192,-12879.583391,2516.700203,79367.493593
2880.159713,-5181.441594,-5181.441594,79061.055394
2880.162234,-296.082377,43524.109390,78294.959896
2880.164755,-9770.718434,77869.665098,77222.426198
2880.167277,6069.688724,-33901.432144,80593.246390
2880.169798,-1628.453072,-23390.507767,78754.617194
2880.172319,6069.688724,78609.871040,70634.004916
2880.174840,20725.766376,-14508.036463,81359.341888
2880.177361,5477.523971,20725.766376,79673.931792
2880.179882,-11251.130318,54035.033766,76762.768900
2880.182403,-9178.553681,-13323.706956,75996.673402
2880.184925,-2368.659014,3849.070898,77528.864398
2880.187446,-1628.453072,10955.047942,80286.808190
2880.189967,12139.377449,-9178.553681,83044.751983
2880.192488,296.082377,20429.683999,77528.864398
2880.195009,-5921.647536,-19541.436869,78294.959896
2880.197530,3552.988522,-7550.100608,77528.864398
2880.200051,-11251.130318,-24426.796086,79980.369991
2880.202572,5033.400406,-4737.318029,83657.628382
2880.205094,-2072.576638,5329.482782,78907.836294
2880.207615,-6217.729913,-1480.411884,75383.797003
2880.210136,-10066.800811,-12435.459826,82585.094684
2880.212657,1332.370696,-30792.567187,81972.218286
2880.215178,10214.842000,-43968.232955,82585.094684
2880.217699,-11399.171507,24426.796086,76609.549800
2880.220220,-11695.253884,9178.553681,76609.549800
2880.222741,6365.771101,27683.702231,78141.740796
2880.225263,9178.553681,-16876.695478,77528.864398
2880.227784,-2072.576638,-12435.459826,80440.027290
2880.230305,444.123565,-23834.631332,81512.560987
2880.232826,2368.659014,-7698.141797,78601.398095
2880.235347,-11399.171507,3552.988522,75383.797003
2880.237868,3552.988522,-1036.288319,78907.836294
2880.240398,12287.418637,-10362.883188,81512.560987
2880.242928,-148.041188,-21762.054695,79214.274493
2880.245458,-2368.659014,11103.089130,77069.207099
2880.247988,-5625.565159,31976.896694,76303.111601
2880.250518,5773.606348,20725.766376,80593.246390
2880.253048,-4737.318029,3997.112087,77222.426198
2880.255578,3404.947333,3701.029710,78448.178995
2880.258107,-5477.523971,6957.935855,79367.493593
2880.260637,-4441.235652,1184.329507,77682.083497
2880.263167,4293.194464,67506.781910,77682.083497
2880.265697,-22206.178260,79942.241736,79214.274493
2880.268227,-8734.430116,-23982.672521,78907.836294
2880.270757,-6809.894666,23686.590144,78141.740796
2880.273287,12435.459826,-5329.482782,75537.016103
2880.275817,34937.720462,-20281.642811,79673.931792
2880.278347,-13175.665768,37306.379477,78754.617194
2880.280877,11695.253884,-888.247130,78448.178995
2880.283407,-888.247130,12731.542202,74770.920605
2880.285936,-10510.924376,-5181.441594,77528.864398
2880.288466,2960.823768,22206.178260,80746.465489
2880.290996,-8290.306550,8586.388927,81972.218286
2880.293526,2960.823768,-11251.130318,78294.959896
2880.296056,-4589.276840,-3108.864956,75230.577904
2880.298586,-2664.741391,-11103.089130,79980.369991
2880.301116,-4885.359217,-6661.853478,80899.684589
2880.303646,-2368.659014,14656.077652,80133.589091
2880.306176,2368.659014,-13915.871710,77988.521696
2880.308706,-3256.906145,-5625.565159,76456.330700
2880.311235,-7254.018232,-10955.047942,81052.903688
2880.313765,10362.883188,-10807.006753,80899.684589
2880.316295,18357.107362,-40415.244433,79673.931792
2880.318825,-148.041188,19689.478057,76762.768900
2880.321355,-8290.306550,-51518.333563,75996.673402
2880.323885,27091.537477,-55515.445650,81206.122788
2880.326415,148.041188,-4441.235652,78294.959896
2880.328945,3404.947333,-37158.338288,77988.521696
2880.331475,20873.807564,-10066.800811,80746.465489
2880.334005,-22798.343014,10658.965565,75690.235202
2880.336535,1332.370696,-17616.901420,78754.617194
2880.339064,-7550.100608,26795.455100,80593.246390
2880.341601,-2664.741391,-17912.983796,81206.122788
2880.344137,-444.123565,4441.235652,77069.207099
2880.346674,-9474.636058,15544.324782,76762.768900
2880.349210,2072.576638,26647.413912,77988.521696
2880.351747,-10658.965565,9918.759623,78448.178995
2880.354283,1628.453072,20429.683999,80133.589091
2880.356820,2220.617826,8290.306550,77375.645298
2880.359356,5033.400406,-13027.624579,80746.465489
2880.361893,-3849.070898,-11103.089130,80899.684589
2880.364429,-9474.636058,-59068.434172,82585.094684
2880.366966,-7254.018232,67062.658345,79520.712692
2880.369502,-19985.560434,12731.542202,77528.864398
2880.372039,3256.906145,-64101.834577,79673.931792
2880.374575,-33309.267390,33753.390955,80133.589091
2880.377112,-8438.347739,740.205942,83504.409282
2880.379648,5921.647536,30792.567187,81359.341888
2880.382185,-14359.995275,45448.644839,75843.454302
2880.384721,-15396.283594,-16728.654289,76303.111601
2880.387258,5181.441594,16580.613101,79673.931792
2880.389794,-11991.336260,9178.553681,81818.999186
2880.392331,4441.235652,-9474.636058,79367.493593
2880.394867,-12731.542202,7698.141797,76762.768900
2880.397404,9326.594869,2072.576638,79367.493593
2880.399940,-9030.512492,-24870.919651,77835.302597
2880.402477,3108.864956,18209.066173,82585.094684
2880.405013,888.247130,-22502.260637,78601.398095
2880.407550,-5181.441594,444.123565,78601.398095
2880.410086,-10955.047942,-29016.072926,83657.628382
2880.412623,0.000000,-63213.587447,83197.971083
2880.415159,-10658.965565,24130.713709,79980.369991
2880.417696,-24870.919651,22502.260637,77682.083497
2880.420232,6069.688724,56107.610404,75690.235202
2880.422769,4293.194464,-36122.049970,79367.493593
2880.425305,13619.789333,-6661.853478,79673.931792
2880.427842,6957.935855,-34345.555709,79980.369991
2880.430378,1332.370696,-21910.095883,81052.903688
2880.432915,1184.329507,7254.018232,76149.892501
2880.435451,-1480.411884,-12139.377449,77375.645298
2880.437988,5921.647536,14211.954086,80746.465489
2880.440524,5181.441594,-27683.702231,82278.656485
2880.443065,2960.823768,2960.823768,78754.617194
2880.445607,-7105.977043,21317.931130,75690.235202
2880.448150,2516.700203,21614.013506,77375.645298
2880.450692,-6661.853478,5773.606348,78141.740796
2880.453235,-2812.782580,19097.313304,81206.122788
2880.455777,0.000000,-592.164754,79673.931792
2880.458319,1184.329507,1480.411884,76915.987999
2880.460862,-9474.636058,-1776.494261,79520.712692
2880.463404,-10066.800811,49297.715737,78141.740796
2880.465947,-888.247130,18357.107362,78141.740796
2880.468489,8290.306550,-70171.523302,82278.656485
2880.471031,-34641.638086,83791.312634,72779.072310
2880.473574,10658.965565,19541.436869,79827.150892
2880.476116,20133.601622,-1924.535449,80286.808190
2880.478659,-20725.766376,26647.413912,78907.836294
2880.481201,28275.866984,1332.370696,79367.493593
2880.483744,-15840.407159,-3256.906145,75537.016103
2880.486286,5625.565159,9178.553681,77988.521696
2880.488828,11547.212695,-14508.036463,79980.369991
2880.491371,-888.247130,4589.276840,81665.780087
2880.493913,1036.288319,-17616.901420,79367.493593
2880.496456,6217.729913,-22354.219448,78141.740796
2880.498998,-17024.736666,-1776.494261,77835.302597
2880.501540,296.082377,3997.112087,80899.684589
2880.504083,5773.606348,-2220.617826,79980.369991
2880.506625,-7846.182985,-3552.988522,75690.235202
2880.509168,-6365.771101,-32717.102636,82431.875585
2880.511710,-10362.883188,-51222.251186,82278.656485
2880.514253,-15100.201217,22798.343014,78141.740796
2880.516795,-6365.771101,12583.501014,80593.246390
2880.519337,-6069.688724,11547.212695,77835.302597
2880.521880,-16728.654289,48557.509795,75843.454302
2880.524422,-19393.395680,-19689.478057,79673.931792
2880.526965,-8882.471304,7994.224174,83197.971083
2880.529507,-21910.095883,-0.000000,79520.712692
2880.532049,-9326.594869,11695.253884,79520.712692
2880.534592,-7994.224174,10510.924376,76609.549800
2880.537134,-5329.482782,-11843.295072,78907.836294
2880.539677,-2368.659014,-23834.631332,84117.285680
2880.542219,-2368.659014,12139.377449,79520.712692
2880.544766,888.247130,14359.995275,77835.302597
2880.547313,4441.235652,31236.690752,77682.083497
2880.549859,-12879.583391,-5181.441594,75537.016103
2880.552406,2664.741391,21317.931130,78754.617194
2880.554953,-5477.523971,1776.494261,81818.999186
2880.557500,-7846.182985,-24278.754898,81512.560987
2880.560047,7550.100608,9030.512492,76762.768900
2880.562593,-1184.329507,18801.230927,75843.454302
2880.565140,-6069.688724,6069.688724,79214.274493
2880.567687,5477.523971,5329.482782,84423.723880
2880.570234,888.247130,-49741.839302,79827.150892
2880.572780,-22502.260637,9770.718434,76149.892501
2880.575327,-9770.718434,16432.571912,79827.150892
2880.577874,-11399.171507,37898.544230,78601.398095
2880.580421,-6217.729913,7550.100608,80286.808190
2880.582968,1480.411884,-1480.411884,77528.864398
2880.585514,-6957.935855,16728.654289,77528.864398
2880.588061,-10066.800811,-5625.565159,79214.274493
2880.590608,-7550.100608,2072.576638,81206.122788
2880.593155,5921.647536,-9474.636058,80899.684589
2880.595701,-5477.523971,-11251.130318,77528.864398
2880.598248,-592.164754,1924.535449,78907.836294
2880.600795,-5625.565159,-2368.659014,76609.549800
2880.603342,0.000000,1628.453072,79214.274493
2880.605889,444.123565,-13619.789333,84270.504780
2880.608435,5625.565159,-18801.230927,78907.836294
2880.610982,10362.883188,-36862.255912,76303.111601
2880.613529,18209.066173,-14211.954086,78907.836294
2880.616076,-296.082377,-4145.153275,77682.083497
2880.618622,-296.082377,26203.290347,81052.903688
2880.621169,-592.164754,-25611.125593,79980.369991
2880.623716,6365.771101,-8142.265362,78294.959896
2880.626263,-1480.411884,-14211.954086,79520.712692
2880.628810,5625.565159,-8734.430116,81206.122788
2880.631356,4885.359217,11991.336260,78601.398095
2880.633903,148.041188,-11843.295072,77375.645298
2880.636450,6217.729913,-10214.842000,79673.931792
2880.638997,1036.288319,-12287.418637,78448.178995
2880.641543,-2812.782580,20577.725188,79673.931792
2880.644090,7994.224174,26203.290347,80440.027290
2880.646640,-9770.718434,3404.947333,74311.263306
2880.649190,-2516.700203,9474.636058,76915.987999
2880.651740,-7994.224174,12287.418637,80593.246390
2880.654289,6809.894666,-1480.411884,82431.875585
2880.656839,592.164754,34345.555709,77682.083497
2880.659389,-15840.407159,70319.564490,74617.701505
2880.661939,6513.812290,-27831.743419,78907.836294
2880.664489,-6661.853478,-11547.212695,81512.560987
2880.667039,8142.265362,-28275.866984,83810.847481
2880.669588,21910.095883,-13915.871710,80133.589091
2880.672138,3997.112087,36714.214723,74617.701505
2880.674688,2812.782580,-9326.594869,77988.521696
2880.677238,592.164754,6069.688724,80133.589091
2880.679788,-4145.153275,-0.000000,80593.246390
2880.682337,4441.235652,15248.242405,80286.808190
2880.684887,-13027.624579,5033.400406,76303.111601
2880.687437,-8734.430116,-18949.272115,78754.617194
2880.689987,2220.617826,-14063.912898,81206.122788
2880.692537,-6957.935855,-12139.377449,82125.437386
2880.695086,1036.288319,-444.123565,80593.246390
2880.697636,-4441.235652,14656.077652,74617.701505
2880.700186,-7254.018232,1332.370696,75843.454302
2880.702736,-3108.864956,-17024.736666,85343.038477
2880.705286,4589.276840,-51518.333563,84576.942979
2880.707835,5625.565159,-44264.315332,81665.780087
2880.710385,-15100.201217,24278.754898,72472.634111
2880.712935,-12435.459826,-39971.120868,78448.178995
2880.715485,-10214.842000,6957.935855,82891.532884
2880.718035,-34345.555709,14063.912898,79520.712692
2880.720585,11399.171507,-15544.324782,86109.133975
2880.723134,-26055.249158,20429.683999,74617.701505
2880.725684,-17764.942608,-5625.565159,77069.207099
2880.728234,2368.659014,1628.453072,84423.723880
2880.730784,-11547.212695,8438.347739,80286.808190
2880.733334,-3108.864956,-21762.054695,81206.122788
2880.735883,-8586.388927,4293.194464,77682.083497
2880.738433,-13915.871710,20873.807564,76303.111601
2880.740983,8290.306550,15840.407159,81818.999186
2880.743533,-10214.842000,7550.100608,78448.178995
2880.746083,5033.400406,5773.606348,79980.369991
2880.748635,-14804.118840,11991.336260,76609.549800
2880.751187,-1924.535449,1628.453072,79367.493593
2880.753739,6513.812290,54479.157331,77682.083497
2880.756291,-23982.672521,72984.305881,77835.302597
2880.758843,7402.059420,-27683.702231,81359.341888
2880.761395,-8734.430116,22502.260637,76762.768900
2880.763947,2664.741391,66174.411215,74158.044206
2880.766500,23834.631332,-19837.519246,83197.971083
2880.769052,-3552.988522,47225.139100,78907.836294
2880.771604,7550.100608,-38490.708984,80133.589091
2880.774156,14063.912898,15100.201217,73545.167808
2880.776708,-5625.565159,1332.370696,76915.987999
2880.779260,12731.542202,10807.006753,81359.341888
2880.781812,-148.041188,6513.812290,80440.027290
2880.784364,-444.123565,-37602.461854,81052.903688
2880.786917,6217.729913,4885.359217,77682.083497
2880.789469,-16136.489536,-16284.530724,78754.617194
2880.792021,1036.288319,-1480.411884,83044.751983
2880.794573,1184.329507,2220.617826,78141.740796
2880.797125,-10658.965565,-13619.789333,77069.207099
2880.799677,-6661.853478,-11547.212695,80593.246390
2880.802229,740.205942,-58624.310606,82738.313784
2880.804782,740.205942,-38342.667796,82738.313784
2880.807334,-19837.519246,39526.997303,75996.673402
2880.809886,1776.494261,38194.626607,75383.797003
2880.812438,4441.235652,-31236.690752,78294.959896
2880.814990,888.247130,-18801.230927,80899.684589
2880.817542,-7846.182985,-14211.954086,78294.959896
2880.820094,23834.631332,-27091.537477,83964.066581
2880.822646,-4145.153275,19541.436869,72779.072310
2880.825199,-2812.782580,-16432.571912,75230.577904
2880.827751,11695.253884,-148.041188,81359.341888
2880.830303,1480.411884,-33161.226202,81665.780087
2880.832855,3552.988522,20577.725188,79827.150892
2880.835407,-14063.912898,31828.855506,75230.577904
2880.837959,6217.729913,25611.125593,76303.111601
2880.840511,-9474.636058,-1776.494261,77069.207099
2880.843063,-444.123565,11991.336260,81972.218286
2880.845616,9326.594869,-10807.006753,81665.780087
2880.848168,-19097.313304,-18505.148550,79980.369991
2880.850722,-7402.059420,2516.700203,76303.111601
2880.853276,-33161.226202,84827.600953,77069.207099
2880.855830,6809.894666,38194.626607,79520.712692
2880.858384,-5181.441594,13323.706956,80899.684589
2880.860938,23982.672521,10807.006753,76149.892501
2880.863492,4441.235652,-1776.494261,77835.302597
2880.866047,-2812.782580,-23242.466579,79367.493593
2880.868601,14063.912898,26055.249158,80899.684589
2880.871155,148.041188,-7698.141797,78754.617194
2880.873709,5773.606348,17616.901420,77375.645298
2880.876263,148.041188,-2516.700203,76609.549800
2880.878817,-5181.441594,-32272.979071,80746.465489
2880.881371,7846.182985,-12879.583391,81052.903688
2880.883926,-1628.453072,-12879.583391,81818.999186
2880.886480,-7994.224174,6069.688724,77222.426198
2880.889034,-6069.688724,15544.324782,76456.330700
2880.891588,296.082377,-10510.924376,79673.931792
2880.894142,-4589.276840,-888.247130,79367.493593
2880.896696,3108.864956,16580.613101,80286.808190
2880.899250,3997.112087,14063.912898,78907.836294
2880.901804,-4737.318029,-76981.417968,79827.150892
2880.904359,-7846.182985,88824.713040,79214.274493
2880.906913,-6957.935855,-19689.478057,78448.178995
2880.909467,43672.150578,-33605.349767,84423.723880
2880.912021,-5921.647536,23686.590144,67876.061123
2880.914575,52998.745447,-50037.921679,84883.381178
2880.917129,4589.276840,3404.947333,75077.358804
2880.919683,-3997.112087,10510.924376,79673.931792
2880.922238,18949.272115,-16136.489536,80899.684589
2880.924792,-12583.501014,-4441.235652,76149.892501
2880.927346,-1332.370696,5329.482782,79520.712692
2880.929900,-9622.677246,19985.560434,78907.836294
2880.932454,3404.947333,35825.967593,79061.055394
2880.935008,888.247130,-888.247130,77835.302597
2880.937562,-9770.718434,23242.466579,76149.892501
2880.940116,2220.617826,5329.482782,80286.808190
2880.942671,4737.318029,8882.471304,78601.398095
2880.945225,3404.947333,67210.699534,78141.740796
2880.947779,8586.388927,-15840.407159,78448.178995
2880.950333,-6809.894666,-4885.359217,75690.235202
2880.952888,6217.729913,31532.773129,78141.740796
2880.955443,22798.343014,-25611.125593,80593.246390
2880.957999,6957.935855,26795.455100,81665.780087
2880.960554,-592.164754,12139.377449,76303.111601
2880.963109,16432.571912,1332.370696,74311.263306
2880.965664,-6513.812290,-6069.688724,78294.959896
2880.968219,12435.459826,24130.713709,81512.560987
2880.970775,2812.782580,-10807.006753,80593.246390
2880.973330,-740.205942,-23834.631332,78601.398095
2880.975885,-296.082377,-12435.459826,75537.016103
2880.978440,-6365.771101,-10214.842000,81052.903688
2880.980995,-5625.565159,2220.617826,80286.808190
2880.983550,2072.576638,16136.489536,80593.246390
2880.986106,-1776.494261,-5033.400406,77682.083497
2880.988661,-8586.388927,7846.182985,74158.044206
2880.991216,-3849.070898,23538.548956,77988.521696
2880.993771,6217.729913,-6513.812290,82585.094684
2880.996326,16284.530724,-16876.695478,80440.027290
2880.998882,-1480.411884,28275.866984,75537.016103
2881.001437,6069.688724,23094.425390,74464.482406
2881.003992,16580.613101,-38786.791361,80899.684589
2881.006547,4441.235652,-20577.725188,79520.712692
2881.009102,22058.137072,-34937.720462,83810.847481
2881.011658,8290.306550,4145.153275,77988.521696
2881.014213,-5625.565159,8734.430116,73391.948708
2881.016768,2812.782580,1480.411884,79214.274493
2881.019323,-1036.288319,-27239.578666,85189.819378
2881.021878,444.123565,12879.583391,81665.780087
2881.024434,-6513.812290,15544.324782,75690.235202
2881.026989,1628.453072,43820.191766,77069.207099
2881.029544,-13027.624579,-3849.070898,76456.330700
2881.032099,3404.947333,14063.912898,80899.684589
2881.034654,0.000000,8142.265362,83197.971083
2881.037210,8734.430116,6217.729913,78754.617194
2881.039765,7994.224174,47521.221476,72166.195912
2881.042320,5625.565159,-2368.659014,76609.549800
2881.044875,-2960.823768,-9030.512492,80899.684589
2881.047430,-2960.823768,148.041188,83197.971083
2881.049986,-5033.400406,2072.576638,78141.740796
2881.052541,-3849.070898,8438.347739,79520.712692
2881.055097,-2664.741391,48113.386230,78907.836294
2881.057653,-1924.535449,-888.247130,77682.083497
2881.060210,4293.194464,16432.571912,78141.740796
2881.062766,-2220.617826,12139.377449,80746.465489
2881.065322,5477.523971,12731.542202,77222.426198
2881.067878,-5329.482782,-28868.031738,78141.740796
2881.070435,10658.965565,-11547.212695,81359.341888
2881.072991,-3997.112087,-20429.683999,81359.341888
2881.075547,-592.164754,4885.359217,78907.836294
2881.078104,-5625.565159,148.041188,74924.139704
2881.080660,-3404.947333,-2072.576638,80133.589091
2881.083216,7846.182985,1184.329507,80440.027290
2881.085772,-3256.906145,25759.166782,79520.712692
2881.088329,-1036.288319,-5477.523971,78141.740796
2881.090885,14211.954086,-14656.077652,77528.864398
2881.093441,-9326.594869,-31680.814318,80746.465489
2881.095997,-1924.535449,-32569.061448,85649.476676
2881.098554,-2960.823768,-23982.672521,79061.055394
2881.101110,-10362.883188,-1628.453072,77682.083497
2881.103666,-8882.471304,4885.359217,78294.959896
2881.106223,-9770.718434,9918.759623,78141.740796
2881.108779,-3256.906145,17172.777854,80593.246390
2881.111335,-3108.864956,-15248.242405,79827.150892
2881.113891,-740.205942,-296.082377,79061.055394
2881.116448,-6365.771101,-1036.288319,78907.836294
2881.119004,-6365.771101,44116.274143,77222.426198
2881.121560,-592.164754,14952.160028,79520.712692
2881.124117,3701.029710,15248.242405,78448.178995
2881.126673,-8438.347739,-6069.688724,77222.426198
2881.129229,3701.029710,13915.871710,78601.398095
2881.131785,-9474.636058,15248.242405,78448.178995
2881.134342,-16580.613101,62029.257940,78448.178995
2881.136898,-13471.748144,296.082377,78141.740796
2881.139454,-5181.441594,59216.475360,74311.263306
2881.142010,4293.194464,45152.562462,75077.358804
2881.144567,20429.683999,-1924.535449,81972.218286
2881.147123,2072.576638,-3404.947333,81512.560987
2881.149679,9030.512492,-19689.478057,79520.712692
2881.152236,-444.123565,21317.931130,73851.606007
2881.154792,-592.164754,-2960.823768,76609.549800
2881.157349,2516.700203,15100.201217,80286.808190
2881.159905,2220.617826,-10955.047942,81665.780087
2881.162462,-2812.782580,-26203.290347,78754.617194
2881.165019,-2220.617826,-2072.576638,79214.274493
2881.167575,-2220.617826,-3552.988522,78141.740796
2881.170132,-7698.141797,13175.665768,80286.808190
2881.172689,5921.647536,-7550.100608,81052.903688
2881.175246,-3108.864956,-22650.301825,77835.302597
2881.177802,-12435.459826,-50037.921679,83964.066581
2881.180359,-17024.736666,-49297.715737,80286.808190
2881.182916,-31532.773129,49741.839302,78294.959896
2881.185473,-8290.306550,-37898.544230,84730.162079
2881.188029,-14952.160028,34493.596897,77375.645298
2881.190586,-33309.267390,7105.977043,76303.111601
2881.193143,1628.453072,-9326.594869,83964.066581
2881.195699,-21910.095883,24278.754898,80286.808190
2881.198256,-21910.095883,4589.276840,80440.027290
2881.200813,592.164754,2664.741391,81206.122788
2881.203370,-13915.871710,-1480.411884,75996.673402
2881.205926,-2220.617826,-17616.901420,80286.808190
2881.208483,-3849.070898,3997.112087,82278.656485
2881.211040,-5921.647536,18801.230927,79520.712692
