#time,accel_x,accel_y,accel_z
227.366202,2368.659014,-2516.700203,78907.836294
227.368747,5181.441594,-1628.453072,79214.274493
227.371292,5329.482782,-740.205942,78754.617194
227.373837,3849.070898,-3256.906145,79061.055394
227.376382,4145.153275,-2516.700203,79520.712692
227.378927,5477.523971,-1332.370696,78601.398095
227.381472,2664.741391,-1628.453072,78141.740796
227.384016,2368.659014,-2664.741391,79520.712692
227.386561,5477.523971,-148.041188,79520.712692
227.389106,4145.153275,-1036.288319,78601.398095
227.391651,1924.535449,-2812.782580,78448.178995
227.394196,2812.782580,-2812.782580,78907.836294
227.396741,5773.606348,-148.041188,79214.274493
227.399286,3552.988522,-1480.411884,78907.836294
227.401831,3997.112087,-2516.700203,78754.617194
227.404376,4737.318029,-2664.741391,79061.055394
227.406921,4885.359217,-740.205942,78907.836294
227.409466,2664.741391,-2072.576638,78141.740796
227.412011,2664.741391,-2664.741391,79673.931792
227.414555,5921.647536,-1184.329507,79980.369991
227.417100,4145.153275,-1924.535449,77682.083497
227.419645,1776.494261,-3997.112087,78601.398095
227.422190,11251.130318,-5329.482782,78907.836294
227.424735,4293.194464,-12731.542202,78448.178995
227.427280,-2664.741391,8290.306550,79520.712692
227.429825,2368.659014,592.164754,79061.055394
227.432370,-8882.471304,-4293.194464,79520.712692
227.434915,-18505.148550,2368.659014,78601.398095
227.437460,-7698.141797,-9622.677246,77682.083497
227.440005,5477.523971,-12583.501014,79673.931792
227.442549,17320.819043,2368.659014,76303.111601
227.445094,5477.523971,14656.077652,78601.398095
227.447639,-3108.864956,888.247130,80286.808190
227.450179,6957.935855,11103.089130,81206.122788
227.452718,-6661.853478,-24278.754898,78754.617194
227.455257,21614.013506,-1332.370696,79214.274493
227.457796,-888.247130,22946.384202,79520.712692
227.460336,-15988.448347,2960.823768,80746.465489
227.462875,6365.771101,-22798.343014,76456.330700
227.465414,25315.043216,-20281.642811,78754.617194
227.467953,5773.606348,31088.649564,80899.684589
227.470492,10807.006753,-10807.006753,75537.016103
227.473032,28127.825796,-11547.212695,76149.892501
227.475571,11103.089130,20725.766376,81818.999186
227.478110,-296.082377,-13027.624579,81665.780087
227.480649,6661.853478,-4737.318029,76149.892501
227.483189,5181.441594,-4145.153275,76456.330700
227.485728,11251.130318,-10214.842000,81359.341888
227.488267,14508.036463,12435.459826,80440.027290
227.490806,-3404.947333,5477.523971,79367.493593
227.493346,296.082377,-16136.489536,77375.645298
227.495885,13619.789333,0.000000,77682.083497
227.498424,21169.889941,5181.441594,78907.836294
227.500963,12879.583391,-6661.853478,78141.740796
227.503503,7698.141797,-4441.235652,80440.027290
227.506042,12435.459826,14359.995275,77835.302597
227.508581,11399.171507,-2812.782580,76915.987999
227.511120,6513.812290,-1184.329507,79061.055394
227.513660,16432.571912,-1776.494261,80746.465489
227.516199,7846.182985,-25759.166782,78294.959896
227.518738,7994.224174,22946.384202,79214.274493
227.521277,-6217.729913,21910.095883,79367.493593
227.523816,2812.782580,-31384.731941,77528.864398
227.526356,12287.418637,-23834.631332,77988.521696
227.528895,8290.306550,24130.713709,79214.274493
227.531434,31680.814318,-54331.116143,75690.235202
227.533973,11991.336260,19097.313304,76303.111601
227.536513,13323.706956,41303.491564,79214.274493
227.539052,14359.995275,-51518.333563,79214.274493
227.541591,-37750.503042,-2516.700203,76303.111601
227.544130,1332.370696,5773.606348,79520.712692
227.546670,7550.100608,-3552.988522,80899.684589
227.549209,-2368.659014,32272.979071,82585.094684
227.551614,-2072.576638,21169.889941,81052.903688
227.554019,4737.318029,-26203.290347,75996.673402
227.556424,-14359.995275,-41007.409187,75996.673402
227.558830,-12583.501014,3552.988522,80746.465489
227.561235,18061.024985,8438.347739,81665.780087
227.563640,6217.729913,-12435.459826,78601.398095
227.566045,-3701.029710,-1332.370696,75230.577904
227.568450,-10510.924376,-17024.736666,77682.083497
227.570855,6365.771101,10214.842000,79827.150892
227.573261,-2220.617826,-5921.647536,79673.931792
227.575666,-8290.306550,-14211.954086,81359.341888
227.578071,5477.523971,12139.377449,79673.931792
227.580476,296.082377,148.041188,75843.454302
227.582881,-740.205942,-11695.253884,75996.673402
227.585286,9918.759623,-4441.235652,80899.684589
227.587691,10658.965565,-14952.160028,79673.931792
227.590097,6217.729913,12435.459826,77682.083497
227.592502,-5181.441594,5921.647536,78141.740796
227.594907,888.247130,-15248.242405,79061.055394
227.597312,-4441.235652,4293.194464,78601.398095
227.599717,-10955.047942,2368.659014,79061.055394
227.602122,-4145.153275,7846.182985,79980.369991
227.604528,-11103.089130,-28127.825796,77528.864398
227.606933,9770.718434,1480.411884,77069.207099
227.609338,3552.988522,13027.624579,79061.055394
227.611743,-6513.812290,-9622.677246,79214.274493
227.614148,12583.501014,12583.501014,79520.712692
227.616553,-8438.347739,-17764.942608,78754.617194
227.618959,20577.725188,-6365.771101,81052.903688
227.621364,-8882.471304,27979.784608,79214.274493
227.623769,-25315.043216,-6069.688724,82125.437386
227.626174,8142.265362,-21317.931130,75230.577904
227.628579,-23538.548956,9030.512492,79827.150892
227.630984,-10955.047942,-33605.349767,78294.959896
227.633390,55811.528027,-24722.878463,74004.825107
227.635795,-17172.777854,55811.528027,76915.987999
227.638200,-18949.272115,-67062.658345,84423.723880
227.640605,6809.894666,24426.796086,79214.274493
227.643010,24870.919651,22650.301825,76303.111601
227.645415,592.164754,-50630.086433,77682.083497
227.647865,23834.631332,20281.642811,79520.712692
227.650315,-7846.182985,31828.855506,79520.712692
227.652765,-22502.260637,-1776.494261,85802.695776
227.655215,11399.171507,-18653.189738,77988.521696
227.657665,24574.837274,-1332.370696,72779.072310
227.660115,3997.112087,19541.436869,78294.959896
227.662565,12879.583391,-8734.430116,80440.027290
227.665015,-10658.965565,-10955.047942,81359.341888
227.667465,-148.041188,9622.677246,79673.931792
227.669915,10955.047942,9918.759623,79827.150892
227.672365,16876.695478,2220.617826,77835.302597
227.674815,5625.565159,-8290.306550,76915.987999
227.677265,8586.388927,-3552.988522,79673.931792
227.679715,888.247130,-296.082377,80593.246390
227.682164,592.164754,-5477.523971,78141.740796
227.684614,7105.977043,-6957.935855,76915.987999
227.687064,8882.471304,15248.242405,79980.369991
227.689514,7402.059420,-9622.677246,81052.903688
227.691964,20725.766376,-8142.265362,79214.274493
227.694414,19393.395680,4145.153275,76456.330700
227.696864,4589.276840,4293.194464,78448.178995
227.699314,13323.706956,-6365.771101,79061.055394
227.701764,7105.977043,-5181.441594,77528.864398
227.704214,296.082377,17912.983796,80899.684589
227.706664,-1480.411884,-9770.718434,81359.341888
227.709114,1184.329507,22798.343014,78141.740796
227.711564,14211.954086,-46188.850781,74617.701505
227.714014,23538.548956,18653.189738,79827.150892
227.716464,-3849.070898,25611.125593,83504.409282
227.718914,40711.326810,-56995.857534,77222.426198
227.721364,17024.736666,66766.575968,74617.701505
227.723813,-27091.537477,11843.295072,86568.791274
227.726263,-1332.370696,-70023.482113,76762.768900
227.728713,20725.766376,-5921.647536,71859.757712
227.731163,-23242.466579,15100.201217,81665.780087
227.733613,-17468.860231,-27239.578666,81512.560987
227.736063,18209.066173,15100.201217,79520.712692
227.738513,-5773.606348,24426.796086,77835.302597
227.740963,9474.636058,-63657.711012,76456.330700
227.743413,10658.965565,6661.853478,78907.836294
227.745885,-33901.432144,20577.725188,80440.027290
227.748365,17320.819043,-7846.182985,81512.560987
227.750844,24574.837274,2368.659014,76762.768900
227.753324,5921.647536,-12435.459826,76762.768900
227.755804,-15988.448347,-11547.212695,78141.740796
227.758284,-12139.377449,12583.501014,79827.150892
227.760763,-6661.853478,-25018.960840,80746.465489
227.763243,5033.400406,11695.253884,80593.246390
227.765723,7846.182985,6809.894666,77682.083497
227.768203,-9474.636058,-8142.265362,77528.864398
227.770683,-7105.977043,-2220.617826,79061.055394
227.773162,3849.070898,-3552.988522,81206.122788
227.775642,5181.441594,-9770.718434,80746.465489
227.778122,1184.329507,6217.729913,79214.274493
227.780602,-4737.318029,5477.523971,78601.398095
227.783082,-9622.677246,-9622.677246,77528.864398
227.785561,-2812.782580,-3997.112087,79061.055394
227.788041,-7698.141797,-6661.853478,78294.959896
227.790521,-13471.748144,-20133.601622,78294.959896
227.793001,5181.441594,27683.702231,80746.465489
227.795481,9178.553681,-3108.864956,79061.055394
227.797960,3108.864956,6513.812290,79367.493593
227.800440,-1628.453072,-25907.207970,77528.864398
227.802920,27239.578666,-17172.777854,78907.836294
227.805400,-20873.807564,26203.290347,80746.465489
227.807879,-13915.871710,5181.441594,80899.684589
227.810359,6809.894666,-17764.942608,76303.111601
227.812839,-28423.908173,-3256.906145,79214.274493
227.815319,-17320.819043,-36714.214723,78141.740796
227.817799,52554.621882,-30348.443622,75383.797003
227.820278,-8290.306550,63213.587447,78294.959896
227.822758,-23094.425390,-67506.781910,83964.066581
227.825238,41895.656317,592.164754,76456.330700
227.827718,24278.754898,44116.274143,73085.510509
227.830198,-1036.288319,-60696.887244,80899.684589
227.832677,21762.054695,-11103.089130,79061.055394
227.835157,-22206.178260,13323.706956,77682.083497
227.837637,-27979.784608,2368.659014,84730.162079
227.840117,5625.565159,-11103.089130,79214.274493
227.842597,30200.402434,3404.947333,74770.920605
227.845099,12139.377449,-5773.606348,75690.235202
227.847602,13915.871710,11547.212695,79367.493593
227.850104,-15692.365970,-8438.347739,80899.684589
227.852607,23686.590144,-14952.160028,78907.836294
227.855110,29608.237680,23242.466579,77375.645298
227.857612,-740.205942,-5181.441594,79214.274493
227.860115,0.000000,-10510.924376,77069.207099
227.862618,11695.253884,-8290.306550,77988.521696
227.865120,4145.153275,5329.482782,80133.589091
227.867623,4145.153275,-12731.542202,78448.178995
227.870126,13027.624579,14211.954086,78294.959896
227.872628,15248.242405,-1036.288319,78141.740796
227.875131,10955.047942,-13175.665768,80133.589091
227.877634,8882.471304,13915.871710,79827.150892
227.880136,7105.977043,-11399.171507,77682.083497
227.882639,5329.482782,-1924.535449,78294.959896
227.885142,11103.089130,-13175.665768,78448.178995
227.887644,15100.201217,18949.272115,80133.589091
227.890147,-444.123565,5033.400406,78601.398095
227.892650,-7698.141797,-3108.864956,78907.836294
227.895152,2664.741391,-7550.100608,79520.712692
227.897655,29756.278868,6957.935855,76915.987999
227.900158,13915.871710,-15396.283594,78141.740796
227.902660,12287.418637,-4145.153275,80133.589091
227.905163,27091.537477,36270.091158,77528.864398
227.907666,-21169.889941,9326.594869,81665.780087
227.910168,-28423.908173,-49741.839302,77222.426198
227.912671,25463.084405,-2960.823768,77682.083497
227.915174,-11547.212695,13175.665768,81052.903688
227.917676,-19097.313304,-15692.365970,80440.027290
227.920179,17616.901420,11991.336260,77528.864398
227.922682,-11251.130318,13323.706956,77682.083497
227.925184,-14656.077652,-50185.962868,77222.426198
227.927687,18949.272115,20873.807564,75996.673402
227.930190,-11103.089130,15988.448347,81818.999186
227.932692,-9770.718434,-4441.235652,84117.285680
227.935195,17024.736666,3849.070898,74464.482406
227.937698,-2516.700203,-10362.883188,77375.645298
227.940200,-4293.194464,-7254.018232,79061.055394
227.942703,-9622.677246,13619.789333,79827.150892
227.945221,-11251.130318,-31680.814318,81665.780087
227.947738,0.000000,4885.359217,80286.808190
227.950256,3404.947333,11843.295072,77682.083497
227.952773,-1332.370696,-9770.718434,76149.892501
227.955291,6661.853478,2960.823768,78907.836294
227.957808,2072.576638,-9918.759623,81052.903688
227.960326,1332.370696,-9622.677246,79520.712692
227.962844,1924.535449,20429.683999,80133.589091
227.965361,-7402.059420,1776.494261,80899.684589
227.967879,-17616.901420,-15544.324782,77988.521696
227.970396,-8290.306550,-19541.436869,76303.111601
227.972914,296.082377,-7254.018232,77528.864398
227.975432,-7254.018232,1924.535449,78294.959896
227.977949,2368.659014,10955.047942,79827.150892
227.980467,8882.471304,-25315.043216,78907.836294
227.982984,29460.196492,-26351.331535,77375.645298
227.985502,-25611.125593,22798.343014,77682.083497
227.988019,-2220.617826,9178.553681,81972.218286
227.990537,-20429.683999,-32569.061448,75996.673402
227.993055,-10510.924376,51074.209998,81972.218286
227.995572,26203.290347,42487.821071,78754.617194
227.998090,-14211.954086,-95930.690083,74617.701505
228.000607,-2516.700203,58920.392983,80899.684589
228.003125,60400.804867,57736.063476,80133.589091
228.005642,28571.949361,-58032.145853,78754.617194
228.008160,-8882.471304,54331.116143,73851.606007
228.010678,8734.430116,-19985.560434,81972.218286
228.013195,5921.647536,-48409.468607,76456.330700
228.015713,-13471.748144,23686.590144,78294.959896
228.018230,37306.379477,-6957.935855,80286.808190
228.020748,11103.089130,18653.189738,81512.560987
228.023266,-10807.006753,-7846.182985,77528.864398
228.025783,17172.777854,-14952.160028,75690.235202
228.028301,17468.860231,21169.889941,81972.218286
228.030818,16876.695478,-25167.002028,78294.959896
228.033336,-3108.864956,-9030.512492,77682.083497
228.035853,-6365.771101,8438.347739,79367.493593
228.038371,-444.123565,-296.082377,82585.094684
228.040889,6809.894666,-3404.947333,77528.864398
228.043406,15692.365970,-12879.583391,76456.330700
228.045933,23242.466579,4441.235652,78141.740796
228.048459,-1480.411884,-3108.864956,79061.055394
228.050985,-4145.153275,-3997.112087,80440.027290
228.053512,18505.148550,9622.677246,78448.178995
228.056038,24722.878463,-4441.235652,78294.959896
228.058565,7698.141797,-5773.606348,78601.398095
228.061091,6513.812290,3256.906145,77988.521696
228.063618,8734.430116,-20873.807564,78754.617194
228.066144,12435.459826,26647.413912,81665.780087
228.068671,6365.771101,16136.489536,78754.617194
228.071197,-6957.935855,-7550.100608,77835.302597
228.073723,12287.418637,-40415.244433,77682.083497
228.076250,27683.702231,25611.125593,78907.836294
228.078776,5773.606348,7846.182985,79673.931792
228.081303,35085.761651,-42783.903448,77375.645298
228.083829,10362.883188,68839.152606,78448.178995
228.086356,-25463.084405,26351.331535,85496.257577
228.088882,17764.942608,-89416.877794,73238.729609
228.091408,0.000000,9474.636058,73698.386908
228.093935,-32124.937883,23982.672521,85496.257577
228.096461,-24870.919651,-22650.301825,81972.218286
228.098988,20577.725188,10510.924376,76149.892501
228.101514,-11103.089130,21614.013506,77988.521696
228.104041,3552.988522,-64693.999331,77222.426198
228.106567,17468.860231,7846.182985,75996.673402
228.109093,-17468.860231,21169.889941,79214.274493
228.111620,17468.860231,-20873.807564,81972.218286
228.114146,2960.823768,11991.336260,75996.673402
228.116673,-3701.029710,-6217.729913,76303.111601
228.119199,7994.224174,-13027.624579,76456.330700
228.121726,-11399.171507,1480.411884,80593.246390
228.124252,-2072.576638,-13619.789333,79214.274493
228.126779,6069.688724,-8142.265362,80746.465489
228.129305,4441.235652,19541.436869,80133.589091
228.131831,-8142.265362,-9622.677246,75843.454302
228.134358,12879.583391,-4589.276840,75383.797003
228.136884,-6957.935855,5773.606348,80746.465489
228.139411,-2516.700203,-12139.377449,82585.094684
228.141937,-2368.659014,-5329.482782,78294.959896
228.144464,-13175.665768,17616.901420,79827.150892
228.146998,-14211.954086,-12435.459826,80440.027290
228.149532,1332.370696,-5773.606348,78294.959896
228.152066,-4441.235652,-5033.400406,74617.701505
228.154600,-7994.224174,6217.729913,77682.083497
228.157134,7550.100608,-20281.642811,80746.465489
228.159668,35381.844028,-7698.141797,79827.150892
228.162202,-17172.777854,10066.800811,80133.589091
228.164736,3849.070898,-740.205942,79827.150892
228.167270,-25907.207970,-5477.523971,75996.673402
228.169804,1628.453072,27979.784608,80133.589091
228.172338,23834.631332,36418.132346,79980.369991
228.174872,-38490.708984,-77721.623910,79214.274493
228.177406,16728.654289,35974.008781,83964.066581
228.179940,30200.402434,58624.310606,78141.740796
228.182474,-4885.359217,-57884.104664,80593.246390
228.185009,-11991.336260,53294.827824,77682.083497
228.187543,21465.972318,3701.029710,81665.780087
228.190077,1924.535449,-43376.068201,77988.521696
228.192611,4737.318029,17024.736666,78294.959896
228.195145,22650.301825,19393.395680,80133.589091
228.197679,-15100.201217,10066.800811,83657.628382
228.200213,1924.535449,-14656.077652,78907.836294
228.202747,28423.908173,2368.659014,74464.482406
228.205281,6809.894666,-13619.789333,79061.055394
228.207815,-740.205942,17468.860231,79980.369991
228.210349,8290.306550,-37750.503042,79214.274493
228.212883,17468.860231,9770.718434,79520.712692
228.215417,13027.624579,17764.942608,80133.589091
228.217951,12731.542202,-7846.182985,76762.768900
228.220485,-296.082377,-17024.736666,75537.016103
228.223019,1036.288319,7105.977043,80899.684589
228.225554,15248.242405,-2072.576638,80593.246390
228.228088,9474.636058,-12583.501014,78907.836294
228.230622,15396.283594,18653.189738,77222.426198
228.233156,23686.590144,-13915.871710,76762.768900
228.235690,4737.318029,-9326.594869,79061.055394
228.238224,8290.306550,-9622.677246,78448.178995
228.240758,20133.601622,22502.260637,79520.712692
228.243292,9030.512492,14063.912898,78448.178995
228.245826,-14656.077652,-7105.977043,79520.712692
228.248364,9178.553681,-43820.191766,77069.207099
228.250902,34937.720462,28423.908173,78294.959896
228.253441,10066.800811,16580.613101,81206.122788
228.255979,36270.091158,-45596.686027,78601.398095
228.258517,9918.759623,67358.740722,76149.892501
228.261055,-27239.578666,20725.766376,84730.162079
228.263593,14656.077652,-87788.424721,75077.358804
228.266132,2664.741391,12287.418637,74311.263306
228.268670,-28571.949361,15396.283594,84423.723880
228.271208,-13027.624579,-25463.084405,80286.808190
228.273746,24278.754898,10214.842000,77375.645298
228.276284,-5625.565159,29608.237680,77528.864398
228.278823,5329.482782,-64249.875766,76609.549800
228.281361,10510.924376,-7698.141797,77682.083497
228.283899,-15840.407159,29756.278868,80133.589091
228.286437,27831.743419,-22946.384202,81052.903688
228.288975,1924.535449,25907.207970,77222.426198
228.291514,-6809.894666,-5033.400406,76149.892501
228.294052,1184.329507,-16728.654289,76609.549800
228.296590,-5921.647536,19245.354492,81818.999186
228.299128,-12139.377449,-15988.448347,81972.218286
228.301666,-1480.411884,-8438.347739,81052.903688
228.304205,11695.253884,27979.784608,80899.684589
228.306743,2812.782580,4737.318029,76609.549800
228.309281,-1776.494261,-11103.089130,75077.358804
228.311819,6365.771101,1332.370696,80133.589091
228.314357,-3256.906145,-15248.242405,81512.560987
228.316896,-10658.965565,-8438.347739,79673.931792
228.319434,-7402.059420,2516.700203,78294.959896
228.321972,-11547.212695,11547.212695,80133.589091
228.324510,-2516.700203,-8882.471304,78448.178995
228.327048,592.164754,-1480.411884,76303.111601
228.329586,1332.370696,-29164.114115,75843.454302
228.332125,33161.226202,-2516.700203,80899.684589
228.334663,-10362.883188,44264.315332,81206.122788
228.337201,3849.070898,-2368.659014,84270.504780
228.339739,-27979.784608,-40119.162056,74004.825107
228.342277,-12731.542202,50185.962868,80133.589091
228.344816,148.041188,27387.619854,78141.740796
228.347354,-23094.425390,-101408.214054,77222.426198
228.349896,9178.553681,53146.786636,84576.942979
228.352438,29164.114115,51814.415940,82891.532884
228.354980,-1480.411884,-70763.688055,80286.808190
228.357522,7698.141797,49889.880491,77528.864398
228.360064,27239.578666,-148.041188,81206.122788
228.362606,9918.759623,-43079.985824,77528.864398
228.365148,5181.441594,21465.972318,77682.083497
228.367690,19837.519246,9770.718434,79673.931792
228.370232,-13619.789333,12287.418637,82738.313784
228.372774,888.247130,-7550.100608,78754.617194
228.375316,25167.002028,740.205942,75690.235202
228.377858,2220.617826,-17320.819043,78448.178995
228.380400,21317.931130,23390.507767,78907.836294
228.382942,3701.029710,-32569.061448,78448.178995
228.385484,11251.130318,4145.153275,80286.808190
228.388027,17764.942608,25611.125593,77682.083497
228.390569,3108.864956,-17172.777854,78141.740796
228.393111,1036.288319,-10214.842000,76915.987999
228.395653,13767.830521,4589.276840,80286.808190
228.398195,8438.347739,-13027.624579,79673.931792
228.400737,4885.359217,-7105.977043,79520.712692
228.403279,18949.272115,10066.800811,77375.645298
228.405821,27535.661042,-12287.418637,76915.987999
228.408363,-296.082377,-14656.077652,79367.493593
228.410905,10510.924376,5921.647536,80286.808190
228.413447,6217.729913,16136.489536,78448.178995
228.415989,-14804.118840,-2664.741391,79827.150892
228.418531,7698.141797,-51074.209998,77222.426198
228.421073,48409.468607,44412.356520,76609.549800
228.423615,8438.347739,11251.130318,80286.808190
228.426157,35825.967593,-41007.409187,79673.931792
228.428699,13619.789333,73576.470635,77835.302597
228.431241,-35677.926404,15396.283594,84576.942979
228.433783,13619.789333,-81274.612432,73391.948708
228.436325,9474.636058,17764.942608,74924.139704
228.438867,-43968.232955,12879.583391,86722.010374
228.441409,-12435.459826,-38638.750172,81206.122788
228.443951,22502.260637,28719.990550,76456.330700
228.446493,-5921.647536,35085.761651,77835.302597
228.449035,13175.665768,-59660.598925,76762.768900
228.451511,18209.066173,-6513.812290,75230.577904
228.453987,-17764.942608,23538.548956,80133.589091
228.456462,20133.601622,-24870.919651,81972.218286
228.458938,2368.659014,25167.002028,76762.768900
228.461414,-2220.617826,-7994.224174,74617.701505
228.463889,-2516.700203,-15100.201217,76915.987999
228.466365,-11251.130318,-1776.494261,81972.218286
228.468840,-1480.411884,6513.812290,81359.341888
228.471316,-3552.988522,-29460.196492,80286.808190
228.473792,3997.112087,7550.100608,79673.931792
228.476267,-9030.512492,6069.688724,77222.426198
228.478743,888.247130,-10510.924376,77528.864398
228.481219,-1036.288319,-5033.400406,78907.836294
228.483694,-6217.729913,2516.700203,81052.903688
228.486170,-11695.253884,-11547.212695,78754.617194
228.488645,-12287.418637,15100.201217,80133.589091
228.491121,-7994.224174,-1628.453072,79520.712692
228.493597,-740.205942,-7402.059420,78294.959896
228.496072,6957.935855,-18949.272115,74464.482406
228.498548,22354.219448,-19985.560434,78141.740796
228.501024,-21317.931130,28127.825796,81206.122788
228.503499,10362.883188,-8734.430116,84730.162079
228.505975,-2960.823768,-33605.349767,72166.195912
228.508450,-6217.729913,47521.221476,78141.740796
228.510926,3256.906145,32124.937883,80440.027290
228.513402,-33309.267390,-91933.577996,75537.016103
228.515877,-4293.194464,40267.203245,84730.162079
228.518353,29164.114115,50334.004056,83810.847481
228.520829,11251.130318,-66766.575968,80440.027290
228.523304,5773.606348,43672.150578,74464.482406
228.525780,22798.343014,21317.931130,78294.959896
228.528255,444.123565,-50185.962868,81359.341888
228.530731,23982.672521,8882.471304,78141.740796
228.533207,16432.571912,10214.842000,79520.712692
228.535682,-12139.377449,6217.729913,81359.341888
228.538158,9178.553681,740.205942,78754.617194
228.540634,19393.395680,-2516.700203,74617.701505
228.543109,-592.164754,-16136.489536,79367.493593
228.545585,23242.466579,14063.912898,79061.055394
228.548060,12287.418637,-27683.702231,77988.521696
228.550557,20725.766376,1924.535449,77528.864398
228.553053,-1480.411884,18801.230927,78294.959896
228.555549,-10807.006753,-11843.295072,80440.027290
228.558045,17764.942608,-15396.283594,76915.987999
228.560541,25315.043216,14211.954086,78907.836294
228.563038,19689.478057,-9326.594869,78754.617194
228.565534,14656.077652,-8438.347739,78754.617194
228.568030,9918.759623,9918.759623,77682.083497
228.570526,6957.935855,-14952.160028,78907.836294
228.573023,20873.807564,-8882.471304,79214.274493
228.575519,16728.654289,24722.878463,78448.178995
228.578015,-21021.848753,-5625.565159,78601.398095
228.580511,8438.347739,-44116.274143,77069.207099
228.583007,24722.878463,25611.125593,81206.122788
228.585504,-3108.864956,18061.024985,80899.684589
228.588000,38490.708984,-39675.038491,77069.207099
228.590496,15692.365970,70763.688055,77682.083497
228.592992,-31532.773129,10066.800811,84576.942979
228.595488,23834.631332,-84827.600953,72932.291410
228.597985,-1036.288319,26943.496289,75230.577904
228.600481,-47225.139100,10658.965565,87181.667672
228.602977,-7550.100608,-37750.503042,81359.341888
228.605473,22354.219448,35381.844028,76456.330700
228.607969,-7994.224174,27387.619854,78601.398095
228.610466,14656.077652,-44412.356520,76609.549800
228.612962,-4885.359217,3849.070898,80593.246390
228.615458,-7846.182985,28423.908173,79061.055394
228.617954,16728.654289,-32124.937883,82125.437386
228.620451,-1332.370696,18949.272115,78141.740796
228.622947,-11843.295072,6809.894666,75537.016103
228.625443,-5329.482782,-17764.942608,78141.740796
228.627939,2812.782580,-13767.830521,78294.959896
228.630435,5181.441594,5477.523971,78448.178995
228.632932,-4589.276840,-11251.130318,82278.656485
228.635428,22650.301825,-6513.812290,80286.808190
228.637924,-3701.029710,19097.313304,75230.577904
228.640420,-7105.977043,-8142.265362,76609.549800
228.642916,6365.771101,-16580.613101,78907.836294
228.645413,-6809.894666,-9178.553681,80286.808190
228.647909,-17320.819043,8734.430116,80899.684589
228.650420,-11695.253884,8438.347739,80133.589091
228.652931,-1628.453072,-9474.636058,77682.083497
228.655442,4885.359217,-21021.848753,74924.139704
228.657953,22650.301825,-17468.860231,74004.825107
228.660464,7105.977043,25167.002028,78907.836294
228.662975,11695.253884,-2368.659014,82738.313784
228.665487,-9326.594869,-7994.224174,83657.628382
228.667998,-22354.219448,-6365.771101,76149.892501
228.670509,-26351.331535,-18801.230927,76149.892501
228.673020,-12731.542202,-17912.983796,79214.274493
228.675531,19837.519246,14063.912898,83197.971083
228.678042,35529.885216,51074.209998,81206.122788
228.680553,-20577.725188,-64693.999331,81359.341888
228.683064,5477.523971,25018.960840,76303.111601
228.685575,22650.301825,24870.919651,75230.577904
228.688086,8438.347739,-54331.116143,82278.656485
228.690598,26351.331535,-5773.606348,77682.083497
228.693109,-7105.977043,14063.912898,77682.083497
228.695620,-8438.347739,-10362.883188,81206.122788
228.698131,23686.590144,14063.912898,79061.055394
228.700642,3701.029710,-15100.201217,75537.016103
228.703153,21465.972318,-9474.636058,77835.302597
228.705664,26499.372724,23242.466579,79367.493593
228.708175,7105.977043,-28571.949361,79367.493593
228.710686,20281.642811,4589.276840,77222.426198
228.713197,-8734.430116,25611.125593,79214.274493
228.715709,-3108.864956,-4441.235652,81665.780087
228.718220,15544.324782,-4737.318029,78754.617194
228.720731,14063.912898,-7402.059420,79520.712692
228.723242,7698.141797,3849.070898,78448.178995
228.725753,10658.965565,-12287.418637,79673.931792
228.728264,17912.983796,-14211.954086,77375.645298
228.730775,31680.814318,37898.544230,77682.083497
228.733286,19245.354492,5773.606348,78754.617194
228.735797,-23390.507767,13471.748144,81206.122788
228.738308,15100.201217,-34049.473332,77222.426198
228.740820,3404.947333,8882.471304,79367.493593
228.743331,296.082377,1480.411884,82738.313784
228.745842,23686.590144,-9474.636058,77222.426198
228.748353,13027.624579,7846.182985,75383.797003
228.750873,46781.015534,14359.995275,76609.549800
228.753397,3256.906145,-16284.530724,76762.768900
228.755921,-53146.786636,-26795.455100,79980.369991
228.758445,12287.418637,20133.601622,79673.931792
228.760969,740.205942,-19541.436869,83351.190182
228.763493,-1036.288319,40415.244433,78294.959896
228.766017,5033.400406,1628.453072,75537.016103
228.768541,-7550.100608,-12879.583391,77988.521696
228.771064,-24130.713709,-30792.567187,83197.971083
228.773588,-1480.411884,-3108.864956,76915.987999
228.776112,-10362.883188,1924.535449,81972.218286
228.778636,2220.617826,-16580.613101,81972.218286
228.781160,2368.659014,14804.118840,74617.701505
228.783684,-6069.688724,-5477.523971,77375.645298
228.786208,-16432.571912,-20577.725188,78294.959896
228.788732,-8586.388927,-12139.377449,81359.341888
228.791256,-5921.647536,2072.576638,82431.875585
228.793780,17320.819043,-6809.894666,80746.465489
228.796304,1332.370696,12879.583391,75230.577904
228.798828,-14359.995275,1776.494261,76609.549800
228.801352,10807.006753,-23686.590144,78448.178995
228.803876,-12435.459826,9030.512492,79673.931792
228.806400,-13915.871710,-2072.576638,81818.999186
228.808924,-8882.471304,3256.906145,80133.589091
228.811448,-1776.494261,11399.171507,79061.055394
228.813972,-2664.741391,-35085.761651,73238.729609
228.816496,18949.272115,-37158.338288,79061.055394
228.819020,-36714.214723,55811.528027,82585.094684
228.821544,-3849.070898,-12879.583391,84883.381178
228.824068,2516.700203,-42339.779882,75537.016103
228.826592,-16580.613101,38490.708984,76303.111601
228.829116,16284.530724,19689.478057,77528.864398
228.831640,-20429.683999,-76241.212026,74924.139704
228.834164,-11695.253884,41451.532752,87488.105872
228.836688,31976.896694,28423.908173,83351.190182
228.839212,32421.020260,-48409.468607,77069.207099
228.841736,-4293.194464,41155.450375,75537.016103
228.844260,28571.949361,7105.977043,80286.808190
228.846784,3108.864956,-30644.525999,79367.493593
228.849308,-5033.400406,1332.370696,78448.178995
228.851840,20725.766376,-148.041188,78601.398095
228.854373,-1924.535449,7254.018232,80133.589091
228.856906,13175.665768,13471.748144,79673.931792
228.859438,9918.759623,-23834.631332,75843.454302
228.861971,2220.617826,-8142.265362,80133.589091
228.864504,25907.207970,20281.642811,77222.426198
228.867037,15248.242405,-48557.509795,76762.768900
228.869569,1332.370696,13767.830521,78294.959896
228.872102,6957.935855,18061.024985,78907.836294
228.874635,8882.471304,-17764.942608,79673.931792
228.877167,8734.430116,-5181.441594,77069.207099
228.879700,20577.725188,9178.553681,78907.836294
228.882233,20725.766376,-14211.954086,77835.302597
228.884765,10510.924376,9770.718434,78601.398095
228.887298,1924.535449,-2664.741391,79214.274493
228.889831,27979.784608,14359.995275,78601.398095
228.892364,-17320.819043,-4885.359217,78754.617194
228.894896,13915.871710,-39971.120868,79520.712692
228.897429,7402.059420,20133.601622,78141.740796
228.899962,-8586.388927,-15248.242405,81972.218286
228.902494,36862.255912,-7846.182985,76149.892501
228.905027,15840.407159,57291.939911,76915.987999
228.907560,148.041188,10955.047942,81052.903688
228.910092,40267.203245,-83939.353823,72166.195912
228.912625,-10214.842000,44560.397708,77835.302597
228.915158,-34641.638086,12139.377449,86875.229473
228.917691,592.164754,-25167.002028,82585.094684
228.920223,-740.205942,48113.386230,77528.864398
228.922756,-1776.494261,4441.235652,77069.207099
228.925289,-1036.288319,-15840.407159,77682.083497
228.927821,-22206.178260,-30940.608376,79980.369991
228.930354,3108.864956,3997.112087,78601.398095
228.932837,7994.224174,2072.576638,81665.780087
228.935320,7846.182985,11695.253884,77835.302597
228.937803,-4293.194464,23538.548956,72932.291410
228.940287,-7254.018232,-8734.430116,80133.589091
228.942770,-18653.189738,-8882.471304,80746.465489
228.945253,8142.265362,-14508.036463,80746.465489
228.947736,15544.324782,6069.688724,80133.589091
228.950219,9474.636058,5477.523971,80746.465489
228.952702,-9178.553681,3404.947333,76609.549800
228.955185,-7254.018232,3701.029710,77375.645298
228.957668,-2812.782580,-7994.224174,80133.589091
228.960151,-12139.377449,-6217.729913,80133.589091
228.962635,-4441.235652,-3552.988522,78601.398095
228.965118,8882.471304,17764.942608,77835.302597
228.967601,-10955.047942,-19541.436869,77375.645298
228.970084,8438.347739,-36122.049970,80133.589091
228.972567,-19393.395680,48113.386230,79980.369991
228.975050,5921.647536,-18357.107362,81665.780087
228.977533,20133.601622,-44708.438897,75690.235202
228.980016,-16432.571912,36270.091158,77988.521696
228.982499,-16728.654289,-3701.029710,79980.369991
228.984983,-34493.596897,-72540.182316,75537.016103
228.987466,-5773.606348,27683.702231,82278.656485
228.989949,38194.626607,29756.278868,83504.409282
228.992432,57143.898722,-30644.525999,75077.358804
228.994915,1036.288319,30940.608376,75690.235202
228.997398,23982.672521,-888.247130,80593.246390
228.999881,8586.388927,-24426.796086,79214.274493
229.002364,7254.018232,-3849.070898,77222.426198
229.004847,12731.542202,9770.718434,79214.274493
229.007331,-8586.388927,-148.041188,80440.027290
229.009814,5033.400406,5329.482782,79061.055394
229.012297,14952.160028,-15840.407159,74770.920605
229.014780,14804.118840,-4885.359217,75996.673402
229.017263,26351.331535,11991.336260,79214.274493
229.019746,23834.631332,-29608.237680,78294.959896
229.022229,9030.512492,5181.441594,77988.521696
229.024712,-10658.965565,19985.560434,79061.055394
229.027195,-148.041188,-16284.530724,81818.999186
229.029679,14952.160028,-10955.047942,78294.959896
229.032181,30496.484810,11991.336260,77375.645298
229.034684,4737.318029,-7994.224174,77528.864398
229.037187,15544.324782,-14508.036463,79673.931792
229.039689,15692.365970,31236.690752,78141.740796
229.042192,1776.494261,17912.983796,79980.369991
229.044695,18949.272115,-37750.503042,78601.398095
229.047197,-3552.988522,9918.759623,79214.274493
229.049700,4441.235652,-10214.842000,79367.493593
229.052203,22206.178260,-8586.388927,76149.892501
229.054706,5033.400406,5773.606348,78294.959896
229.057208,34049.473332,19689.478057,79214.274493
229.059711,444.123565,-14508.036463,76915.987999
229.062214,-36714.214723,-39082.873738,81818.999186
229.064716,2072.576638,24278.754898,79061.055394
229.067219,1184.329507,-10658.965565,82125.437386
229.069722,-17764.942608,-14211.954086,78141.740796
229.072224,13471.748144,9770.718434,74311.263306
229.074727,-16284.530724,22502.260637,79520.712692
229.077230,-16876.695478,-44264.315332,77988.521696
229.079733,29312.155303,-15988.448347,76303.111601
229.082235,-1184.329507,52702.663070,79980.369991
229.084738,4737.318029,-40267.203245,81512.560987
229.087241,4737.318029,4145.153275,73698.386908
229.089743,-7402.059420,17024.736666,76915.987999
229.092246,-5329.482782,-17912.983796,79367.493593
229.094749,-5773.606348,-13619.789333,79214.274493
229.097251,10362.883188,4885.359217,80899.684589
229.099754,1332.370696,-3997.112087,81206.122788
229.102257,9030.512492,-2516.700203,77069.207099
229.104760,-6809.894666,8142.265362,75077.358804
229.107262,-6513.812290,-8290.306550,80899.684589
229.109765,-6957.935855,-8438.347739,81052.903688
229.112268,-9918.759623,740.205942,79214.274493
229.114770,-7698.141797,-14656.077652,77069.207099
229.117273,8586.388927,-10214.842000,74464.482406
229.119776,15840.407159,3997.112087,83504.409282
229.122278,-17468.860231,24278.754898,83810.847481
229.124781,-11103.089130,3701.029710,83044.751983
229.127284,-2960.823768,-29904.320057,74311.263306
229.129787,-15544.324782,25463.084405,79367.493593
229.132304,-8290.306550,-25167.002028,81512.560987
229.134821,41599.573940,-34345.555709,70634.004916
229.137338,10510.924376,59808.640114,77835.302597
229.139856,-28423.908173,-17616.901420,84883.381178
229.142373,46188.850781,-12583.501014,78294.959896
229.144890,23538.548956,22798.343014,73851.606007
229.147408,17024.736666,-24130.713709,82278.656485
229.149925,17024.736666,-8142.265362,77528.864398
229.152442,-12139.377449,-3701.029710,77375.645298
229.154960,9770.718434,7105.977043,79061.055394
229.157477,7254.018232,7698.141797,81359.341888
229.159994,1776.494261,0.000000,79827.150892
229.162512,6957.935855,-19837.519246,74004.825107
229.165029,12435.459826,8586.388927,80440.027290
229.167546,6809.894666,6809.894666,81818.999186
229.170063,5921.647536,-35233.802839,78601.398095
229.172581,7105.977043,10214.842000,76609.549800
229.175098,1036.288319,10807.006753,77988.521696
229.177615,13619.789333,-25018.960840,80286.808190
229.180133,22354.219448,-4885.359217,78294.959896
229.182650,11991.336260,15840.407159,77375.645298
229.185167,2220.617826,-34937.720462,79214.274493
229.187685,25167.002028,21169.889941,78294.959896
229.190202,-888.247130,11991.336260,77988.521696
229.192719,9326.594869,-45152.562462,79061.055394
229.195236,14508.036463,4145.153275,79980.369991
229.197754,3552.988522,-1776.494261,81359.341888
229.200271,15100.201217,-10362.883188,75077.358804
229.202788,7254.018232,-8142.265362,77222.426198
229.205306,28571.949361,33753.390955,80593.246390
229.207823,-5033.400406,-13619.789333,76303.111601
229.210340,-28719.990550,-47521.221476,78294.959896
229.212858,18801.230927,23538.548956,79061.055394
229.215375,8734.430116,-6661.853478,82125.437386
229.217892,-26351.331535,-11103.089130,76609.549800
229.220410,-11843.295072,-6069.688724,76149.892501
229.222927,-11695.253884,4441.235652,81052.903688
229.225444,-19393.395680,-45004.521274,79520.712692
229.227961,27831.743419,-20133.601622,76303.111601
229.230479,2664.741391,53886.992578,79827.150892
229.233008,-5625.565159,-36566.173535,82738.313784
229.235538,5625.565159,8142.265362,73851.606007
229.238067,-5921.647536,19837.519246,76149.892501
229.240597,-740.205942,-16136.489536,80133.589091
229.243126,740.205942,9622.677246,80593.246390
229.245656,4885.359217,-5773.606348,81665.780087
229.248185,-1184.329507,-2812.782580,80440.027290
229.250715,-10807.006753,21169.889941,76762.768900
229.253244,-10214.842000,5329.482782,76609.549800
229.255774,-4737.318029,-13767.830521,80286.808190
229.258303,-5921.647536,-6217.729913,81052.903688
229.260833,2220.617826,-1628.453072,77988.521696
229.263362,-12583.501014,-5625.565159,75077.358804
229.265892,3701.029710,-25907.207970,79061.055394
229.268421,-5625.565159,37306.379477,84117.285680
229.270951,-1776.494261,9178.553681,83044.751983
229.273480,1776.494261,-44560.397708,75537.016103
229.276010,-16876.695478,27683.702231,77988.521696
229.278539,16284.530724,15248.242405,81512.560987
229.281069,14656.077652,-80830.488866,74617.701505
229.283598,-14656.077652,49741.839302,81972.218286
229.286128,5773.606348,9770.718434,83197.971083
229.288657,43228.027013,-47077.097911,74770.920605
229.291187,10955.047942,33753.390955,74924.139704
229.293716,31088.649564,-592.164754,82738.313784
229.296246,1480.411884,-30496.484810,81206.122788
229.298775,11103.089130,-6365.771101,75843.454302
229.301305,14656.077652,4145.153275,74770.920605
229.303834,-1628.453072,444.123565,81206.122788
229.306364,11399.171507,-9622.677246,78294.959896
229.308893,14952.160028,1480.411884,76762.768900
229.311423,3552.988522,-18061.024985,76303.111601
229.313952,19541.436869,16580.613101,78448.178995
229.316482,0.000000,-1776.494261,80286.808190
229.319011,-2516.700203,-16876.695478,80593.246390
229.321541,11251.130318,19837.519246,78294.959896
229.324070,25907.207970,-9474.636058,78141.740796
229.326600,16728.654289,-15988.448347,77682.083497
229.329129,0.000000,8142.265362,79827.150892
229.331659,7698.141797,-5921.647536,78754.617194
229.334197,296.082377,14804.118840,79061.055394
229.336735,20281.642811,-15840.407159,77375.645298
229.339273,5033.400406,-20133.601622,79061.055394
229.341812,11399.171507,19689.478057,79980.369991
229.344350,6809.894666,-1924.535449,81818.999186
229.346888,29460.196492,-17468.860231,76149.892501
229.349426,9474.636058,28868.031738,76149.892501
229.351964,1776.494261,22798.343014,81665.780087
229.354503,30792.567187,-65582.246461,73545.167808
229.357041,-17468.860231,18949.272115,79061.055394
229.359579,-24574.837274,26499.372724,84423.723880
229.362117,8142.265362,-40415.244433,79673.931792
229.364656,10658.965565,48705.550984,75537.016103
229.367194,-7254.018232,5181.441594,78448.178995
229.369732,-444.123565,-19097.313304,78601.398095
229.372270,-14063.912898,-17320.819043,80746.465489
229.374809,-12731.542202,-10658.965565,79673.931792
229.377347,8734.430116,148.041188,81972.218286
229.379885,1924.535449,-4885.359217,79980.369991
229.382423,-5625.565159,12731.542202,73238.729609
229.384962,444.123565,1924.535449,79214.274493
229.387500,-12139.377449,-21317.931130,79673.931792
229.390038,-3849.070898,2812.782580,81052.903688
229.392576,-4737.318029,-5033.400406,82125.437386
229.395114,2664.741391,1332.370696,79520.712692
229.397653,-1924.535449,9770.718434,74464.482406
229.400191,-5329.482782,6365.771101,78294.959896
229.402729,-6217.729913,-15100.201217,81052.903688
229.405267,-3108.864956,-13175.665768,78907.836294
229.407806,-13027.624579,-3256.906145,75843.454302
229.410344,4737.318029,-27683.702231,78141.740796
229.412882,-12435.459826,40859.367998,83044.751983
229.415420,-10510.924376,9474.636058,84423.723880
229.417959,3108.864956,-47373.180288,76609.549800
229.420497,-12583.501014,24278.754898,77835.302597
229.423035,12583.501014,24278.754898,80133.589091
229.425573,5477.523971,-88972.754228,75690.235202
229.428112,-8290.306550,60400.804867,83044.751983
229.430650,25315.043216,9326.594869,82125.437386
229.433188,39378.956114,-53146.786636,73698.386908
229.435684,-4441.235652,44708.438897,74770.920605
229.438180,28571.949361,888.247130,82738.313784
229.440677,8586.388927,-39378.956114,81818.999186
229.443173,20577.725188,-1628.453072,75843.454302
229.445669,10362.883188,6957.935855,74617.701505
229.448165,-8882.471304,-5773.606348,81206.122788
229.450661,9326.594869,-3849.070898,79367.493593
229.453157,19097.313304,9770.718434,77528.864398
229.455653,-1628.453072,-20725.766376,76762.768900
229.458150,22058.137072,17024.736666,80593.246390
229.460646,20725.766376,7105.977043,77988.521696
229.463142,9622.677246,-12435.459826,78601.398095
229.465638,-592.164754,13175.665768,81359.341888
229.468134,13027.624579,-9474.636058,78907.836294
229.470630,22206.178260,4145.153275,77222.426198
229.473127,10658.965565,4145.153275,77682.083497
229.475623,17320.819043,-13619.789333,78601.398095
229.478119,-4885.359217,3552.988522,80133.589091
229.480615,6957.935855,-16432.571912,78601.398095
229.483111,7550.100608,-10807.006753,78141.740796
229.485607,17024.736666,-5625.565159,80593.246390
229.488104,14656.077652,9474.636058,79520.712692
229.490600,17320.819043,-16728.654289,75843.454302
229.493096,31236.690752,22354.219448,77835.302597
229.495592,-26795.455100,11991.336260,80899.684589
229.498088,-18061.024985,-60992.969621,78294.959896
229.500584,17172.777854,17024.736666,78141.740796
229.503080,-14211.954086,-1184.329507,83044.751983
229.505577,-15840.407159,-38194.626607,76915.987999
229.508073,2664.741391,-1480.411884,73391.948708
229.510569,-6957.935855,29312.155303,80899.684589
229.513065,-7254.018232,-52406.580694,78448.178995
229.515561,28719.990550,-1924.535449,79520.712692
229.518057,-19245.354492,58180.187041,81512.560987
229.520554,-5773.606348,-46632.974346,83504.409282
229.523050,13175.665768,15100.201217,76303.111601
229.525546,1628.453072,24426.796086,74770.920605
229.528042,-1776.494261,-25315.043216,78601.398095
229.530538,-18653.189738,-2220.617826,79980.369991
229.533034,11399.171507,2220.617826,81206.122788
229.535547,3256.906145,-21169.889941,79061.055394
229.538060,-444.123565,13323.706956,77682.083497
229.540573,-13767.830521,11843.295072,77222.426198
229.543085,-3997.112087,-16284.530724,79367.493593
229.545598,-15248.242405,-14804.118840,79980.369991
229.548111,5921.647536,-15248.242405,75077.358804
229.550624,8586.388927,-9622.677246,77375.645298
229.553137,-22058.137072,43524.109390,83964.066581
229.555649,-4145.153275,6513.812290,83810.847481
229.558162,-4441.235652,-44856.480085,77069.207099
229.560675,-7846.182985,30644.525999,77835.302597
229.563188,13471.748144,25611.125593,80746.465489
229.565700,27979.784608,-74612.758954,73391.948708
229.568213,-9178.553681,56995.857534,79520.712692
229.570726,17912.983796,-3997.112087,81972.218286
229.573239,54183.074954,-43672.150578,72319.415011
229.575751,2516.700203,32421.020260,74464.482406
229.578264,16728.654289,5477.523971,83810.847481
229.580777,7550.100608,-36418.132346,81052.903688
229.583290,13175.665768,-12435.459826,76456.330700
229.585802,12139.377449,9030.512492,75230.577904
229.588315,-3108.864956,-1480.411884,80899.684589
229.590828,888.247130,5477.523971,80286.808190
229.593341,8290.306550,8586.388927,77069.207099
229.595854,592.164754,-444.123565,76609.549800
229.598366,30200.402434,7105.977043,80133.589091
229.600879,9474.636058,-1184.329507,78601.398095
229.603392,6661.853478,-13175.665768,81359.341888
229.605905,12139.377449,11547.212695,79520.712692
229.608417,20133.601622,-888.247130,78294.959896
229.610930,8438.347739,-5625.565159,77528.864398
229.613443,13175.665768,10658.965565,77069.207099
229.615956,10214.842000,6217.729913,79827.150892
229.618468,11843.295072,-31680.814318,78601.398095
229.620981,11399.171507,-9474.636058,76915.987999
229.623494,25907.207970,-4737.318029,78141.740796
229.626007,14508.036463,28275.866984,80746.465489
229.628519,22946.384202,-23686.590144,79214.274493
229.631032,17616.901420,35677.926404,77375.645298
229.633545,-43968.232955,16580.613101,82278.656485
229.636071,23834.631332,-84827.600953,74924.139704
229.638598,17172.777854,45744.727216,76303.111601
229.641125,-34789.679274,1924.535449,86875.229473
229.643651,444.123565,-42783.903448,78754.617194
229.646178,6513.812290,43524.109390,74924.139704
229.648704,-12583.501014,-6809.894666,77375.645298
229.651231,-1332.370696,-30496.484810,78448.178995
229.653757,5329.482782,-3849.070898,81665.780087
229.656284,-29312.155303,-2664.741391,81665.780087
229.658810,18357.107362,-21465.972318,80746.465489
229.661337,15988.448347,17024.736666,76149.892501
229.663863,-12287.418637,1628.453072,76456.330700
229.666390,3701.029710,-888.247130,81359.341888
229.668916,-10066.800811,888.247130,78907.836294
229.671443,3997.112087,-18357.107362,80440.027290
229.673969,3108.864956,5329.482782,79061.055394
229.676496,-7254.018232,2516.700203,79827.150892
229.679022,-20429.683999,4441.235652,77375.645298
229.681549,-148.041188,-592.164754,79673.931792
229.684075,-9770.718434,-27091.537477,78907.836294
229.686602,-7402.059420,-28719.990550,74464.482406
229.689128,-592.164754,30052.361245,81206.122788
229.691655,-8586.388927,10658.965565,83657.628382
229.694181,7550.100608,-1628.453072,82278.656485
229.696708,-1480.411884,-31088.649564,74004.825107
229.699234,-23834.631332,4589.276840,77222.426198
229.701761,13915.871710,13619.789333,79520.712692
229.704287,32124.937883,-66618.534780,74004.825107
229.706814,-22354.219448,49149.674549,80133.589091
229.709340,-33901.432144,-25463.084405,84117.285680
229.711867,32865.143825,-6513.812290,74617.701505
229.714393,34789.679274,13767.830521,73851.606007
229.716920,19393.395680,-6069.688724,83197.971083
229.719446,14656.077652,-5921.647536,79980.369991
229.721973,-4293.194464,-24574.837274,76456.330700
229.724499,8586.388927,15100.201217,77988.521696
229.727026,444.123565,8438.347739,80899.684589
229.729552,7402.059420,-1924.535449,79673.931792
229.732079,7698.141797,-6957.935855,76456.330700
229.734605,-740.205942,-23834.631332,76915.987999
229.737142,16876.695478,6957.935855,79214.274493
229.739679,-6069.688724,-8882.471304,78294.959896
229.742216,15840.407159,444.123565,81359.341888
229.744752,23242.466579,21169.889941,81359.341888
229.747289,8438.347739,-7254.018232,79827.150892
229.749826,7550.100608,6069.688724,77069.207099
229.752362,10510.924376,11399.171507,76149.892501
229.754899,17172.777854,-30052.361245,79673.931792
229.757436,7550.100608,-1184.329507,79980.369991
229.759972,10510.924376,15396.283594,78294.959896
229.762509,5329.482782,-16580.613101,79827.150892
229.765046,29904.320057,-10955.047942,79214.274493
229.767582,12731.542202,31976.896694,76609.549800
229.770119,-7254.018232,9918.759623,79827.150892
229.772656,31680.814318,-72096.058751,73545.167808
229.775192,-8882.471304,49001.633360,77835.302597
229.777729,-23834.631332,11843.295072,84576.942979
229.780266,15692.365970,-26943.496289,81359.341888
229.782802,-10955.047942,37750.503042,77988.521696
229.785339,-13619.789333,-9030.512492,76303.111601
229.787876,-3997.112087,13619.789333,78601.398095
229.790412,-13471.748144,-36862.255912,79367.493593
229.792949,17468.860231,-9326.594869,79520.712692
229.795486,11251.130318,19245.354492,80440.027290
229.798022,-11399.171507,-1776.494261,81052.903688
229.800559,-12879.583391,6957.935855,76303.111601
229.803096,6661.853478,8142.265362,79673.931792
229.805632,5477.523971,-11103.089130,78907.836294
229.808169,3404.947333,-592.164754,79827.150892
229.810706,-10658.965565,10066.800811,82125.437386
229.813242,-148.041188,-10362.883188,79367.493593
229.815779,-6365.771101,22058.137072,78294.959896
229.818316,-5181.441594,10214.842000,79367.493593
229.820852,-10807.006753,-36714.214723,77988.521696
229.823389,-11843.295072,-43968.232955,75537.016103
229.825926,-18801.230927,40267.203245,82891.532884
229.828462,-4885.359217,20577.725188,84117.285680
229.830999,7846.182985,-38194.626607,78907.836294
229.833536,25018.960840,8586.388927,73851.606007
229.836072,-9030.512492,2664.741391,77988.521696
229.838616,-32124.937883,-37898.544230,79827.150892
229.841161,49445.756926,12139.377449,79214.274493
229.843705,16728.654289,36862.255912,81052.903688
229.846249,-33605.349767,-17468.860231,85189.819378
229.848793,14063.912898,11399.171507,76456.330700
229.851337,31088.649564,9030.512492,79673.931792
229.853881,17764.942608,-30348.443622,81818.999186
229.856425,50630.086433,15544.324782,75077.358804
229.858969,11399.171507,-7846.182985,75077.358804
229.861514,-7994.224174,5921.647536,81206.122788
229.864058,-6809.894666,15248.242405,81818.999186
229.866602,5033.400406,-12731.542202,78294.959896
229.869146,23094.425390,-1924.535449,75537.016103
229.871690,12583.501014,-2368.659014,76303.111601
229.874234,21614.013506,3404.947333,79980.369991
229.876778,-5773.606348,-3701.029710,78754.617194
229.879323,9326.594869,-7254.018232,81665.780087
229.881867,6069.688724,23686.590144,80440.027290
229.884411,21021.848753,-11103.089130,79214.274493
229.886955,8438.347739,5033.400406,76456.330700
229.889499,1628.453072,-14063.912898,76762.768900
229.892043,12879.583391,-17320.819043,81206.122788
229.894587,3404.947333,11843.295072,80133.589091
229.897131,18061.024985,-22058.137072,78141.740796
229.899676,21021.848753,8290.306550,75996.673402
229.902220,16136.489536,-7698.141797,79520.712692
229.904764,39378.956114,8586.388927,78754.617194
229.907308,-19393.395680,2664.741391,77069.207099
229.909852,-40267.203245,2072.576638,78754.617194
229.912396,-7254.018232,27979.784608,83351.190182
229.914940,12139.377449,-8734.430116,82278.656485
229.917485,-21910.095883,3256.906145,78907.836294
229.920029,1184.329507,-6661.853478,74770.920605
229.922573,-2368.659014,28423.908173,79061.055394
229.925117,-11251.130318,-43672.150578,77528.864398
229.927661,18801.230927,4737.318029,79827.150892
229.930205,-20873.807564,15396.283594,81359.341888
229.932749,-740.205942,-28868.031738,81512.560987
229.935293,12287.418637,18801.230927,75383.797003
229.937838,-12583.501014,7550.100608,76915.987999
229.940388,4145.153275,-15396.283594,79061.055394
229.942939,8438.347739,1184.329507,79214.274493
229.945489,-18357.107362,3256.906145,81972.218286
229.948040,-6217.729913,-19245.354492,79980.369991
229.950590,2368.659014,28571.949361,78601.398095
229.953141,-11251.130318,-5625.565159,78141.740796
229.955691,-1480.411884,-35677.926404,76915.987999
229.958242,-7254.018232,-31236.690752,75230.577904
229.960793,-21317.931130,24426.796086,79980.369991
229.963343,-1776.494261,30348.443622,83810.847481
229.965894,740.205942,-37010.297100,79980.369991
229.968444,7698.141797,11843.295072,77222.426198
229.970995,13471.748144,35085.761651,78448.178995
229.973545,-29312.155303,-84679.559765,77682.083497
229.976096,-8734.430116,59956.681302,79367.493593
229.978647,66026.370026,6365.771101,78141.740796
229.981197,6957.935855,-37454.420665,78601.398095
229.983748,-23834.631332,31680.814318,77682.083497
229.986298,30200.402434,2812.782580,80133.589091
229.988849,10066.800811,-25907.207970,80440.027290
229.991399,50037.921679,6661.853478,76149.892501
229.993950,19097.313304,-10807.006753,75537.016103
229.996501,-6365.771101,-4737.318029,80899.684589
229.999051,-740.205942,19689.478057,81052.903688
230.001602,-7402.059420,-13027.624579,79214.274493
230.004152,17024.736666,-2220.617826,76915.987999
230.006703,22502.260637,-444.123565,75843.454302
230.009253,-3701.029710,6513.812290,78754.617194
230.011804,-4145.153275,-20133.601622,79214.274493
230.014354,40859.367998,-4885.359217,79367.493593
230.016905,11251.130318,14656.077652,78754.617194
230.019456,14063.912898,-3108.864956,79520.712692
230.022006,740.205942,0.000000,76609.549800
230.024557,5477.523971,-24130.713709,77988.521696
230.027107,2220.617826,-14063.912898,80593.246390
230.029658,20873.807564,-9770.718434,79673.931792
230.032208,13619.789333,19985.560434,75996.673402
230.034759,23982.672521,-21762.054695,77375.645298
230.037310,23390.507767,34049.473332,81818.999186
230.039860,-41155.450375,16580.613101,83351.190182
230.042415,-8586.388927,-81866.777185,74617.701505
230.044970,27091.537477,27239.578666,75077.358804
230.047525,-32124.937883,16432.571912,85802.695776
230.050079,-7698.141797,-46040.809592,78754.617194
230.052634,15988.448347,31976.896694,74924.139704
230.055189,-12139.377449,15396.283594,78448.178995
230.057744,-6513.812290,-33309.267390,76303.111601
230.060299,16432.571912,-1184.329507,78448.178995
230.062854,-22058.137072,-1332.370696,80899.684589
230.065408,888.247130,-8290.306550,84423.723880
230.067963,4293.194464,14656.077652,78294.959896
230.070518,-1924.535449,2664.741391,74770.920605
230.073073,-740.205942,-592.164754,78907.836294
230.075628,-5773.606348,-1776.494261,81052.903688
230.078183,8142.265362,-7254.018232,80286.808190
230.080737,-3108.864956,-4885.359217,78448.178995
230.083292,2812.782580,20429.683999,80440.027290
230.085847,-11103.089130,-444.123565,78141.740796
230.088402,-11547.212695,-22650.301825,78754.617194
230.090957,-2368.659014,-9770.718434,77528.864398
230.093512,-14359.995275,11695.253884,76915.987999
230.096066,-5625.565159,34789.679274,83197.971083
230.098621,-10362.883188,-30940.608376,80133.589091
230.101176,1776.494261,3108.864956,79520.712692
230.103731,15396.283594,34493.596897,79214.274493
230.106286,-21169.889941,-81718.735997,76915.987999
230.108840,-17024.736666,57291.939911,79520.712692
230.111395,54331.116143,-5181.441594,79214.274493
230.113950,40563.285622,-41303.491564,73851.606007
230.116505,-1628.453072,18653.189738,75230.577904
230.119060,22946.384202,21021.848753,81972.218286
230.121615,-2812.782580,-45744.727216,79827.150892
230.124169,21317.931130,-2072.576638,77222.426198
230.126724,24870.919651,17024.736666,75077.358804
230.129279,12139.377449,-1776.494261,81665.780087
230.131834,-1924.535449,21762.054695,80440.027290
230.134389,-11251.130318,-9622.677246,79214.274493
230.136944,14063.912898,-11843.295072,77528.864398
230.139498,31680.814318,-444.123565,77682.083497
230.142053,17320.819043,4441.235652,75383.797003
230.144611,10955.047942,-22058.137072,77222.426198
230.147169,16728.654289,15100.201217,81512.560987
230.149726,19393.395680,592.164754,78754.617194
230.152284,3997.112087,2960.823768,77682.083497
230.154841,13915.871710,-7550.100608,76915.987999
230.157399,12731.542202,-21021.848753,79827.150892
230.159957,13767.830521,18949.272115,80440.027290
230.162514,5477.523971,7698.141797,80899.684589
230.165072,21021.848753,-12583.501014,76456.330700
230.167630,16432.571912,14211.954086,77682.083497
230.170187,23538.548956,8290.306550,81818.999186
230.172745,35974.008781,-88676.671852,71706.538613
230.175303,-2072.576638,48557.509795,76762.768900
230.177860,-37158.338288,16136.489536,86109.133975
230.180418,12287.418637,-25018.960840,80593.246390
230.182975,-2072.576638,37306.379477,76609.549800
230.185533,-15100.201217,-21021.848753,78907.836294
230.188091,-5625.565159,23686.590144,79980.369991
230.190648,-16136.489536,-30940.608376,77682.083497
230.193206,9918.759623,-1776.494261,80440.027290
230.195764,-8586.388927,15248.242405,81206.122788
230.198321,3849.070898,-17320.819043,82125.437386
230.200879,-444.123565,25315.043216,75077.358804
230.203437,-740.205942,740.205942,78754.617194
230.205994,1332.370696,-14804.118840,80440.027290
230.208552,2516.700203,2812.782580,79980.369991
230.211110,-3849.070898,2960.823768,80133.589091
230.213667,4293.194464,3849.070898,79827.150892
230.216225,-17764.942608,9622.677246,79214.274493
230.218782,-19541.436869,-5625.565159,79980.369991
230.221340,14656.077652,-12879.583391,78907.836294
230.223898,-16728.654289,7402.059420,76762.768900
230.226455,-11547.212695,28275.866984,80286.808190
230.229013,-5477.523971,-23242.466579,78907.836294
230.231571,-12879.583391,9918.759623,79980.369991
230.234128,20873.807564,26795.455100,79827.150892
230.236686,6809.894666,-78609.871040,78601.398095
230.239244,-34049.473332,46781.015534,80593.246390
230.241801,45152.562462,-11399.171507,79673.931792
230.244359,38046.585419,-42191.738694,73698.386908
230.246918,-7550.100608,27535.661042,76762.768900
230.249477,19837.519246,8734.430116,81512.560987
230.252037,-1480.411884,-36270.091158,80440.027290
230.254596,36270.091158,6365.771101,75996.673402
230.257155,34789.679274,2960.823768,75537.016103
230.259714,13471.748144,-740.205942,80133.589091
230.262273,8586.388927,19541.436869,78448.178995
230.264833,-2664.741391,-3849.070898,77988.521696
230.267392,11695.253884,-21317.931130,78448.178995
230.269951,20725.766376,4293.194464,78601.398095
230.272510,-10510.924376,-5329.482782,77375.645298
230.275070,19097.313304,-17024.736666,77988.521696
230.277629,39230.914926,10807.006753,78907.836294
230.280188,7698.141797,4441.235652,79980.369991
230.282747,148.041188,-13175.665768,77682.083497
230.285307,9770.718434,-16284.530724,77835.302597
230.287866,3849.070898,-13471.748144,79827.150892
230.290425,19393.395680,-11547.212695,78294.959896
230.292984,19393.395680,27091.537477,78448.178995
230.295543,10510.924376,-31976.896694,78754.617194
230.298103,21465.972318,29756.278868,80133.589091
230.300662,-33457.308578,11991.336260,81512.560987
230.303221,-7994.224174,-80386.365301,77375.645298
230.305780,29164.114115,25018.960840,74617.701505
230.308340,-25463.084405,13471.748144,83657.628382
230.310899,-14508.036463,-42931.944636,79827.150892
230.313458,16284.530724,27535.661042,74924.139704
230.316017,-11251.130318,9474.636058,78294.959896
230.318577,-17172.777854,-31236.690752,76303.111601
230.321136,9770.718434,-12139.377449,77069.207099
230.323695,-5477.523971,13767.830521,81818.999186
230.326254,-1036.288319,-15988.448347,82585.094684
230.328813,4441.235652,-8734.430116,77222.426198
230.331373,3404.947333,27979.784608,75230.577904
230.333932,1184.329507,-7550.100608,79061.055394
230.336491,-592.164754,-5181.441594,81512.560987
230.339050,5033.400406,-8142.265362,79520.712692
230.341610,-740.205942,7550.100608,78601.398095
230.344169,-18209.066173,-5329.482782,78754.617194
230.346728,-14211.954086,-9178.553681,79061.055394
230.349289,2220.617826,-3256.906145,80899.684589
230.351849,-12731.542202,9622.677246,77988.521696
230.354410,-12287.418637,16284.530724,78601.398095
230.356971,-11103.089130,-30348.443622,77375.645298
230.359531,5625.565159,15396.283594,80133.589091
230.362092,15396.283594,32421.020260,80133.589091
230.364653,-26351.331535,-77721.623910,79520.712692
230.367213,-4293.194464,50482.045244,79827.150892
230.369774,55959.569215,1480.411884,77528.864398
230.372335,4589.276840,-24426.796086,76915.987999
230.374896,-2072.576638,30644.525999,77069.207099
230.377456,20133.601622,9030.512492,82891.532884
230.380017,2368.659014,-38342.667796,80133.589091
230.382578,30200.402434,8142.265362,75077.358804
230.385138,35381.844028,-1776.494261,75230.577904
230.387699,7105.977043,-2368.659014,81665.780087
230.390260,-7698.141797,24722.878463,80746.465489
230.392820,-740.205942,-8290.306550,77375.645298
230.395381,16432.571912,-15544.324782,76915.987999
230.397942,21762.054695,444.123565,77528.864398
230.400502,15544.324782,9326.594869,75996.673402
230.403063,5477.523971,-14656.077652,78294.959896
230.405624,17468.860231,14359.995275,81665.780087
230.408184,8586.388927,14211.954086,79367.493593
230.410745,16432.571912,-25907.207970,76456.330700
230.413306,11843.295072,-1776.494261,78294.959896
230.415866,16728.654289,5477.523971,79980.369991
230.418427,1924.535449,-12731.542202,80440.027290
230.420988,10066.800811,10214.842000,77988.521696
230.423548,18653.189738,-13619.789333,78294.959896
230.426109,28719.990550,14804.118840,78294.959896
230.428670,-15544.324782,-2960.823768,77528.864398
230.431230,-31828.855506,-51962.457128,79980.369991
230.433791,-11843.295072,22650.301825,82278.656485
230.436352,15248.242405,-7105.977043,81512.560987
230.438913,-24426.796086,11991.336260,78448.178995
230.441473,2664.741391,-11991.336260,76303.111601
230.444034,-296.082377,19837.519246,79827.150892
230.446595,-21317.931130,-36862.255912,76149.892501
230.449155,10510.924376,-17468.860231,76456.330700
230.451717,-888.247130,26203.290347,81052.903688
230.454278,0.000000,-31088.649564,82585.094684
230.456839,13471.748144,-1036.288319,76609.549800
230.459400,-4441.235652,18357.107362,75537.016103
230.461962,1628.453072,-7994.224174,79673.931792
230.464523,3552.988522,-7994.224174,79980.369991
230.467084,592.164754,3849.070898,79061.055394
230.469646,-12731.542202,-7254.018232,78294.959896
230.472207,-12879.583391,-2516.700203,79827.150892
230.474768,-2664.741391,-15988.448347,79520.712692
230.477330,-12583.501014,9622.677246,80899.684589
230.479891,-17468.860231,3404.947333,77835.302597
230.482452,6661.853478,-18653.189738,76609.549800
230.485014,13323.706956,-6957.935855,75537.016103
230.487575,-13619.789333,15840.407159,82278.656485
230.490136,-8438.347739,-11399.171507,82891.532884
230.492697,29016.072926,15544.324782,77069.207099
230.495259,31532.773129,25759.166782,77375.645298
230.497820,-18505.148550,-13175.665768,81665.780087
230.500381,7402.059420,21614.013506,76915.987999
230.502943,26647.413912,-4293.194464,79980.369991
230.505504,8290.306550,8142.265362,82891.532884
230.508065,20281.642811,-12139.377449,77988.521696
230.510627,6957.935855,-38934.832549,76149.892501
230.513188,-8142.265362,26055.249158,80133.589091
230.515749,4737.318029,9030.512492,81665.780087
230.518311,20133.601622,-2220.617826,76762.768900
230.520872,20133.601622,-6661.853478,77375.645298
230.523433,1480.411884,-15248.242405,78294.959896
230.525994,-444.123565,16136.489536,79520.712692
230.528556,5625.565159,-2960.823768,77988.521696
230.531117,31680.814318,-13767.830521,79367.493593
230.533678,13915.871710,29904.320057,79980.369991
230.536240,9474.636058,-18209.066173,79061.055394
230.538801,15100.201217,-10807.006753,77835.302597
230.541362,9178.553681,18949.272115,77988.521696
230.543924,3849.070898,-25167.002028,81665.780087
230.546485,14656.077652,11695.253884,78448.178995
230.549046,18653.189738,-3404.947333,78141.740796
230.551608,13027.624579,8586.388927,80440.027290
230.554129,24870.919651,-41747.615129,72932.291410
230.556650,-30200.402434,8586.388927,77988.521696
230.559172,-9622.677246,13323.706956,81512.560987
230.561693,15396.283594,-8142.265362,82431.875585
230.564215,-27535.661042,10362.883188,79827.150892
230.566736,11695.253884,-9326.594869,75383.797003
230.569257,1480.411884,20873.807564,79827.150892
230.571779,-31384.731941,-38046.585419,78448.178995
230.574300,12287.418637,-20577.725188,75537.016103
230.576822,-148.041188,29016.072926,80133.589091
230.579343,-6809.894666,-27831.743419,83504.409282
230.581864,11843.295072,-148.041188,76456.330700
230.584386,-1776.494261,21169.889941,75383.797003
230.586907,2516.700203,-4589.276840,80746.465489
230.589429,-1480.411884,4737.318029,80746.465489
230.591950,-5033.400406,-18801.230927,79214.274493
230.594471,-9474.636058,-2368.659014,77988.521696
230.596993,-15692.365970,-7402.059420,79061.055394
230.599514,-7846.182985,3849.070898,81052.903688
230.602036,-8586.388927,11399.171507,79214.274493
230.604557,-14063.912898,7254.018232,77988.521696
230.607078,-15396.283594,-21465.972318,75996.673402
230.609600,-9474.636058,7698.141797,80746.465489
230.612121,23982.672521,47965.345042,82585.094684
230.614643,3256.906145,-86752.136402,79367.493593
230.617164,-13175.665768,45152.562462,81052.903688
230.619685,31236.690752,9178.553681,77069.207099
230.622207,16876.695478,-47521.221476,74311.263306
230.624728,-8290.306550,32272.979071,77835.302597
230.627250,32124.937883,6217.729913,83964.066581
230.629771,10955.047942,-28719.990550,81206.122788
230.632292,33457.308578,7846.182985,74924.139704
230.634814,21317.931130,-24574.837274,74158.044206
230.637335,17468.860231,-7402.059420,79214.274493
230.639857,0.000000,24130.713709,79520.712692
230.642378,-2368.659014,-6809.894666,79214.274493
230.644899,18949.272115,-22650.301825,77682.083497
230.647421,8586.388927,8734.430116,77528.864398
230.649942,-10066.800811,1332.370696,78907.836294
230.652464,19689.478057,-18949.272115,79520.712692
230.654992,26795.455100,18357.107362,80593.246390
230.657523,19245.354492,740.205942,78294.959896
230.660053,20281.642811,-8586.388927,78448.178995
230.662584,-2220.617826,-7105.977043,77988.521696
230.665114,0.000000,-19245.354492,80593.246390
230.667645,14804.118840,15544.324782,79061.055394
230.670176,17320.819043,-11547.212695,79367.493593
230.672706,29608.237680,18505.148550,78601.398095
230.675237,-26499.372724,7698.141797,78907.836294
230.677767,-32865.143825,-64101.834577,79367.493593
230.680298,22946.384202,18209.066173,77835.302597
230.682828,-8734.430116,7698.141797,79980.369991
230.685359,-17172.777854,-38786.791361,78141.740796
230.687890,21614.013506,24278.754898,74617.701505
230.690420,-13471.748144,-1480.411884,80593.246390
230.692951,-22502.260637,-10362.883188,79827.150892
230.695481,7105.977043,-23538.548956,75843.454302
230.698012,-1776.494261,21762.054695,82125.437386
230.700543,-9622.677246,-9918.759623,82431.875585
230.703073,3404.947333,-10807.006753,76762.768900
230.705604,-2960.823768,12731.542202,76915.987999
230.708134,6957.935855,-4737.318029,81052.903688
230.710665,6513.812290,-4737.318029,79367.493593
230.713195,-11399.171507,2664.741391,77682.083497
230.715726,-10066.800811,-10214.842000,80286.808190
230.718257,-5033.400406,-16580.613101,79367.493593
230.720787,-23390.507767,14952.160028,80746.465489
230.723318,-20429.683999,-592.164754,77375.645298
230.725848,19689.478057,10658.965565,77682.083497
230.728379,-9178.553681,-9030.512492,75537.016103
230.730909,-21762.054695,-3849.070898,81206.122788
230.733440,22946.384202,41599.573940,82431.875585
230.735971,19985.560434,-69431.317360,79520.712692
230.738501,-14656.077652,41895.656317,79980.369991
230.741032,22206.178260,3256.906145,78907.836294
230.743562,20281.642811,-42043.697506,74004.825107
230.746093,-2812.782580,23242.466579,77069.207099
230.748624,26351.331535,10955.047942,82585.094684
230.751154,13323.706956,-41155.450375,79980.369991
230.753685,12435.459826,-592.164754,74770.920605
230.756222,33013.185013,0.000000,74464.482406
230.758759,21614.013506,-2072.576638,79214.274493
230.761296,-5181.441594,20133.601622,80593.246390
230.763833,-7550.100608,-7846.182985,79367.493593
230.766370,15692.365970,-20133.601622,77069.207099
230.768907,19393.395680,9770.718434,77069.207099
230.771444,592.164754,592.164754,78294.959896
230.773981,17912.983796,888.247130,79520.712692
230.776518,23390.507767,1628.453072,79673.931792
230.779055,10807.006753,-9178.553681,79980.369991
230.781592,2072.576638,-23538.548956,76609.549800
230.784129,26943.496289,-1776.494261,75537.016103
230.786666,17616.901420,18949.272115,80440.027290
230.789203,21614.013506,-21762.054695,79520.712692
230.791740,4293.194464,25463.084405,79980.369991
230.794277,-22354.219448,21762.054695,81359.341888
230.796814,35677.926404,-73724.511823,73851.606007
230.799351,11547.212695,37750.503042,77069.207099
230.801888,-28275.866984,25759.166782,83044.751983
230.804425,1480.411884,-24278.754898,81665.780087
230.806962,-19985.560434,25167.002028,78448.178995
230.809498,-25315.043216,-14359.995275,80746.465489
230.812035,-1332.370696,21910.095883,80440.027290
230.814572,-6809.894666,-22798.343014,76915.987999
230.817109,-1776.494261,-24278.754898,77835.302597
230.819646,8882.471304,33013.185013,79827.150892
230.822183,-5477.523971,-9770.718434,82125.437386
230.824720,-1184.329507,-4885.359217,77375.645298
230.827257,2072.576638,4441.235652,77835.302597
230.829794,7402.059420,-6809.894666,81818.999186
230.832331,148.041188,10362.883188,77528.864398
230.834868,-6513.812290,-10510.924376,77528.864398
230.837405,-19097.313304,-27239.578666,79827.150892
230.839942,-25907.207970,20577.725188,83197.971083
230.842479,-14656.077652,3849.070898,80899.684589
230.845016,7254.018232,3849.070898,77375.645298
230.847553,-7254.018232,-8586.388927,75077.358804
230.850090,-10658.965565,-6069.688724,78907.836294
230.852627,18061.024985,41747.615129,83504.409282
230.855164,-7846.182985,-68098.946664,79980.369991
230.857668,740.205942,38490.708984,79367.493593
230.860173,37454.420665,7994.224174,77528.864398
230.862677,2072.576638,-30348.443622,76456.330700
230.865181,-7698.141797,31236.690752,77375.645298
230.867685,21021.848753,13619.789333,83197.971083
230.870189,17024.736666,-35974.008781,81206.122788
230.872693,27387.619854,10955.047942,74924.139704
230.875197,21021.848753,-18653.189738,73545.167808
230.877701,3108.864956,-5181.441594,82125.437386
230.880205,-1924.535449,33901.432144,81512.560987
230.882709,16136.489536,-12583.501014,78601.398095
230.885213,20133.601622,-8586.388927,76456.330700
230.887717,2368.659014,1036.288319,77528.864398
230.890222,3552.988522,3552.988522,78907.836294
230.892726,13027.624579,-8438.347739,78141.740796
230.895230,22946.384202,2516.700203,79673.931792
230.897734,23094.425390,8438.347739,78294.959896
230.900238,11399.171507,-18949.272115,77069.207099
230.902742,15100.201217,-11399.171507,77375.645298
230.905246,8142.265362,28275.866984,79367.493593
230.907750,23686.590144,-25315.043216,79827.150892
230.910254,13915.871710,34197.514520,81052.903688
230.912758,-34049.473332,29904.320057,81665.780087
230.915262,19393.395680,-94450.278199,72932.291410
230.917766,24722.878463,39378.956114,76149.892501
230.920271,-35085.761651,29312.155303,85955.914876
230.922775,1628.453072,-39675.038491,80746.465489
230.925279,21317.931130,42783.903448,75537.016103
230.927783,-25759.166782,-4145.153275,81665.780087
230.930287,-8290.306550,16876.695478,80746.465489
230.932791,-1924.535449,-19689.478057,77069.207099
230.935295,-9326.594869,-20429.683999,79214.274493
230.937799,11399.171507,33901.432144,80286.808190
230.940303,-3997.112087,-7550.100608,81052.903688
230.942807,-2516.700203,0.000000,78294.959896
230.945311,444.123565,2220.617826,78907.836294
230.947815,6365.771101,-3849.070898,81359.341888
230.950319,-9030.512492,592.164754,78754.617194
230.952824,-9622.677246,-8142.265362,78141.740796
230.955328,-148.041188,2812.782580,80746.465489
230.957845,-11547.212695,11547.212695,81359.341888
230.960362,-37158.338288,-28127.825796,77528.864398
230.962880,-10066.800811,-2220.617826,75843.454302
230.965397,444.123565,-25167.002028,74004.825107
230.967914,-1924.535449,-5477.523971,80286.808190
230.970431,8290.306550,11103.089130,81512.560987
230.972949,51074.209998,-31680.814318,77682.083497
230.975466,-6365.771101,17468.860231,79827.150892
230.977983,-7698.141797,-4441.235652,80593.246390
230.980501,35825.967593,-5181.441594,72012.976812
230.983018,23094.425390,-10510.924376,78754.617194
230.985535,2220.617826,14804.118840,84117.285680
230.988052,20725.766376,-20725.766376,79061.055394
230.990570,11251.130318,-19985.560434,74770.920605
230.993087,10510.924376,10955.047942,77835.302597
230.995604,12435.459826,5181.441594,79980.369991
230.998122,9326.594869,12583.501014,79061.055394
231.000639,-4293.194464,-4145.153275,78294.959896
231.003156,7698.141797,-14359.995275,79061.055394
231.005673,5181.441594,3849.070898,78141.740796
231.008191,1776.494261,-1628.453072,77988.521696
231.010708,23390.507767,-8438.347739,79673.931792
231.013225,35974.008781,11843.295072,79061.055394
231.015743,14063.912898,-26647.413912,77682.083497
231.018260,19985.560434,0.000000,76762.768900
231.020777,12287.418637,25463.084405,77222.426198
231.023294,21465.972318,-36418.132346,79520.712692
231.025812,5921.647536,31236.690752,79980.369991
231.028329,-11399.171507,19393.395680,81052.903688
231.030846,31088.649564,-72096.058751,72625.853210
231.033364,-5033.400406,30940.608376,76609.549800
231.035881,-18357.107362,28868.031738,83657.628382
231.038398,13767.830521,-19541.436869,80286.808190
231.040916,7698.141797,35381.844028,77069.207099
231.043433,-27831.743419,-10807.006753,80746.465489
231.045950,5033.400406,25611.125593,80593.246390
231.048467,-14804.118840,-20281.642811,77069.207099
231.050985,-1184.329507,-40415.244433,76915.987999
231.053502,10214.842000,26795.455100,78601.398095
231.056019,-18801.230927,-6513.812290,82431.875585
231.058547,5625.565159,-15544.324782,78294.959896
231.061074,6365.771101,13619.789333,77988.521696
231.063602,0.000000,-6365.771101,80593.246390
231.066130,740.205942,-5033.400406,80133.589091
231.068657,-5477.523971,-10955.047942,76915.987999
231.071185,-13027.624579,5921.647536,79673.931792
231.073712,-14952.160028,13767.830521,81512.560987
231.076240,-29164.114115,-28127.825796,78294.959896
231.078768,-22502.260637,-22650.301825,76915.987999
231.081295,5181.441594,-10510.924376,74924.139704
231.083823,12139.377449,-2072.576638,79367.493593
231.086350,-2812.782580,-19097.313304,81206.122788
231.088878,42931.944636,3404.947333,76762.768900
231.091405,8734.430116,5033.400406,78448.178995
231.093933,-9326.594869,-15988.448347,80133.589091
231.096461,27831.743419,22206.178260,75230.577904
231.098988,26943.496289,-10658.965565,79980.369991
231.101516,4737.318029,6957.935855,82278.656485
231.104043,23538.548956,-4293.194464,78907.836294
231.106571,13323.706956,-23834.631332,74617.701505
231.109099,5921.647536,10362.883188,78907.836294
231.111626,5477.523971,6957.935855,78754.617194
231.114154,6217.729913,1480.411884,78601.398095
231.116681,2664.741391,-7254.018232,79061.055394
231.119209,12879.583391,-8734.430116,79214.274493
231.121736,6661.853478,1480.411884,77528.864398
231.124264,9178.553681,3108.864956,77988.521696
231.126792,26203.290347,-8142.265362,78907.836294
231.129319,19689.478057,1480.411884,78907.836294
231.131847,15544.324782,10362.883188,79367.493593
231.134374,10214.842000,-7698.141797,78754.617194
231.136902,3552.988522,9178.553681,78141.740796
231.139430,15248.242405,-23094.425390,78907.836294
231.141957,23834.631332,27387.619854,80746.465489
231.144485,-27091.537477,20577.725188,82278.656485
231.147012,-26351.331535,-75501.006084,75537.016103
231.149540,28275.866984,13915.871710,77988.521696
231.152067,-22798.343014,27091.537477,83504.409282
231.154595,-8290.306550,-39675.038491,77069.207099
231.157123,21762.054695,9770.718434,73851.606007
231.159658,-11695.253884,15100.201217,80899.684589
231.162194,-33161.226202,-4885.359217,83197.971083
231.164729,10066.800811,-5329.482782,76609.549800
231.167265,-14804.118840,-17172.777854,78907.836294
231.169800,148.041188,19393.395680,82278.656485
231.172336,6069.688724,15248.242405,79673.931792
231.174872,2516.700203,-6069.688724,78448.178995
231.177407,4589.276840,5625.565159,79520.712692
231.179943,5773.606348,6069.688724,80899.684589
231.182478,-10362.883188,-5773.606348,76609.549800
231.185014,-16432.571912,-5329.482782,79367.493593
231.187549,-15988.448347,19245.354492,83810.847481
231.190085,-21169.889941,-13915.871710,77835.302597
231.192620,-1924.535449,11991.336260,76915.987999
231.195156,-2516.700203,-6809.894666,74770.920605
231.197692,-13323.706956,-6809.894666,80593.246390
231.200227,15248.242405,17172.777854,81359.341888
231.202763,50926.168810,-35381.844028,78141.740796
231.205298,-10214.842000,20429.683999,79980.369991
231.207834,6217.729913,-7846.182985,79673.931792
231.210369,30792.567187,-14063.912898,72932.291410
231.212905,11843.295072,-13767.830521,79367.493593
231.215441,3997.112087,11251.130318,83351.190182
231.217976,18357.107362,-23390.507767,78907.836294
231.220512,10955.047942,-12287.418637,75077.358804
231.223047,19837.519246,-3108.864956,75383.797003
231.225583,21021.848753,10214.842000,79214.274493
231.228118,9030.512492,9770.718434,78907.836294
231.230654,9918.759623,-888.247130,78448.178995
231.233189,6365.771101,-15840.407159,78754.617194
231.235725,-2960.823768,-592.164754,78141.740796
231.238261,7994.224174,14804.118840,78294.959896
231.240796,35529.885216,-17616.901420,78294.959896
231.243332,31384.731941,-8290.306550,77222.426198
231.245867,22650.301825,18801.230927,78141.740796
231.248403,5033.400406,-5033.400406,79520.712692
231.250938,-2220.617826,-2072.576638,79827.150892
231.253474,22058.137072,-15100.201217,78294.959896
231.256010,28571.949361,20577.725188,79673.931792
231.258545,-24130.713709,14656.077652,81512.560987
231.261051,-30496.484810,-65434.205273,75996.673402
231.263556,23686.590144,7846.182985,77528.864398
231.266061,-16432.571912,29016.072926,82891.532884
231.268567,-9918.759623,-54775.239708,78754.617194
231.271072,18949.272115,2812.782580,72166.195912
231.273578,-10066.800811,15396.283594,80133.589091
231.276083,-35085.761651,-888.247130,83504.409282
231.278589,10807.006753,-4589.276840,77682.083497
231.281094,-8734.430116,-15396.283594,78601.398095
231.283599,-3108.864956,10362.883188,81818.999186
231.286105,3849.070898,6957.935855,78907.836294
231.288610,2664.741391,-5033.400406,77222.426198
231.291116,4589.276840,5625.565159,78754.617194
231.293621,148.041188,-8290.306550,81359.341888
231.296127,-13471.748144,-17024.736666,78754.617194
231.298632,-23094.425390,5033.400406,78448.178995
231.301138,-25167.002028,8290.306550,83197.971083
231.303643,-14508.036463,-20281.642811,80133.589091
231.306148,-14211.954086,-23390.507767,76303.111601
231.308654,2664.741391,-6809.894666,75230.577904
231.311159,13915.871710,4885.359217,78448.178995
231.313665,-13767.830521,-33457.308578,80899.684589
231.316170,31976.896694,26795.455100,78448.178995
231.318676,33309.267390,-592.164754,77988.521696
231.321181,-10658.965565,-19393.395680,79061.055394
231.323687,16432.571912,33753.390955,76303.111601
231.326192,11991.336260,-14063.912898,77682.083497
231.328697,9326.594869,3404.947333,82431.875585
231.331203,23834.631332,2220.617826,80133.589091
231.333708,18653.189738,-18505.148550,74004.825107
231.336214,13915.871710,9770.718434,78601.398095
231.338719,6957.935855,23094.425390,78754.617194
231.341225,13323.706956,-4293.194464,79520.712692
231.343730,-1628.453072,-8586.388927,78601.398095
231.346235,-3404.947333,-8586.388927,80593.246390
231.348741,7698.141797,14952.160028,78601.398095
231.351246,17468.860231,-5773.606348,77222.426198
231.353752,29904.320057,-7550.100608,77835.302597
231.356257,22354.219448,8882.471304,77988.521696
231.358763,16284.530724,-13323.706956,80899.684589
231.361282,16284.530724,26943.496289,77069.207099
231.363800,19985.560434,-27091.537477,77835.302597
231.366319,9030.512492,15692.365970,80593.246390
231.368838,-23538.548956,35677.926404,83657.628382
231.371357,14063.912898,-85419.765707,73698.386908
231.373876,13175.665768,31088.649564,75383.797003
231.376395,-23094.425390,36270.091158,85189.819378
231.378914,10807.006753,-27387.619854,80286.808190
231.381433,-3404.947333,23094.425390,76149.892501
231.383952,-26203.290347,-7550.100608,82125.437386
231.386470,-2368.659014,19393.395680,83351.190182
231.388989,-1036.288319,-14508.036463,76149.892501
231.391508,-8882.471304,-42635.862259,76456.330700
231.394027,4737.318029,15100.201217,78754.617194
231.396546,1776.494261,13323.706956,82125.437386
231.399065,3997.112087,-22650.301825,76609.549800
231.401584,2812.782580,5773.606348,78294.959896
231.404103,-9474.636058,11399.171507,81206.122788
231.406621,2368.659014,-26203.290347,78601.398095
231.409140,-18801.230927,3849.070898,77222.426198
231.411659,-29460.196492,12583.501014,81818.999186
231.414178,-27535.661042,-26499.372724,79061.055394
231.416697,-9918.759623,-20429.683999,75843.454302
231.419216,2220.617826,-12583.501014,74158.044206
231.421735,14508.036463,-3997.112087,77988.521696
231.424254,-6069.688724,-16728.654289,81052.903688
231.426773,36566.173535,13619.789333,78754.617194
231.429291,19245.354492,-1036.288319,78907.836294
231.431810,-6809.894666,-16284.530724,78907.836294
231.434329,25315.043216,25907.207970,74464.482406
231.436848,8438.347739,-13471.748144,78448.178995
231.439367,-1332.370696,3404.947333,83197.971083
231.441886,19985.560434,-5181.441594,79214.274493
231.444405,12139.377449,-18357.107362,73851.606007
231.446924,23242.466579,-2812.782580,77069.207099
231.449443,17616.901420,4885.359217,76456.330700
231.451961,3404.947333,-1480.411884,78141.740796
231.454480,2960.823768,0.000000,80593.246390
231.456999,3701.029710,-11991.336260,79980.369991
231.459518,6217.729913,-11251.130318,78294.959896
231.462048,16432.571912,-4737.318029,76149.892501
231.464578,19541.436869,-10066.800811,78601.398095
231.467107,23538.548956,-1184.329507,78141.740796
231.469637,22206.178260,-8882.471304,81359.341888
231.472167,5033.400406,12583.501014,78601.398095
231.474696,13323.706956,-18505.148550,77528.864398
231.477226,22058.137072,17468.860231,81359.341888
231.479756,-29756.278868,25611.125593,83197.971083
231.482285,-13323.706956,-75056.882519,75077.358804
231.484815,22206.178260,12731.542202,75537.016103
231.487345,-24722.878463,32717.102636,83810.847481
231.489874,-3849.070898,-44412.356520,79673.931792
231.492404,18949.272115,30644.525999,76303.111601
231.494934,-31236.690752,-10214.842000,81052.903688
231.497464,888.247130,17616.901420,82125.437386
231.499993,13175.665768,-1628.453072,75996.673402
231.502523,-14508.036463,-38194.626607,78294.959896
231.505053,-1332.370696,15840.407159,81052.903688
231.507582,2516.700203,16136.489536,79367.493593
231.510112,-13027.624579,-18505.148550,78601.398095
231.512642,3256.906145,9622.677246,80593.246390
231.515171,5625.565159,4293.194464,79827.150892
231.517701,-3108.864956,-15988.448347,78754.617194
231.520231,-18505.148550,19689.478057,79061.055394
231.522761,-31088.649564,2072.576638,81052.903688
231.525290,-4293.194464,5033.400406,80899.684589
231.527820,-13323.706956,2220.617826,76762.768900
231.530350,-29016.072926,-14804.118840,80899.684589
231.532879,19689.478057,32124.937883,79673.931792
231.535409,35974.008781,-44856.480085,79827.150892
231.537939,-15988.448347,39675.038491,81206.122788
231.540468,32124.937883,-11399.171507,79061.055394
231.543006,17468.860231,-32569.061448,73391.948708
231.545544,-10066.800811,35085.761651,78141.740796
231.548082,23982.672521,-6661.853478,80746.465489
231.550620,21762.054695,-3997.112087,80593.246390
231.553158,12731.542202,7402.059420,78141.740796
231.555696,17468.860231,-13323.706956,75996.673402
231.558234,21762.054695,7994.224174,79061.055394
231.560772,13915.871710,22354.219448,77222.426198
231.563310,14211.954086,-8142.265362,78754.617194
231.565848,1924.535449,-3256.906145,80133.589091
231.568386,1776.494261,-12139.377449,78448.178995
231.570924,7254.018232,-10066.800811,77682.083497
231.573462,17912.983796,-3997.112087,78448.178995
231.575999,25907.207970,-21614.013506,77222.426198
231.578537,31236.690752,4293.194464,77069.207099
231.581075,30052.361245,26943.496289,78448.178995
231.583613,12879.583391,-30052.361245,78141.740796
231.586151,2072.576638,11843.295072,79827.150892
231.588689,-23686.590144,33013.185013,83351.190182
231.591227,20873.807564,-78461.829852,74311.263306
231.593765,9622.677246,31828.855506,75230.577904
231.596303,-27535.661042,37158.338288,84423.723880
231.598841,7402.059420,-26795.455100,81206.122788
231.601379,-5773.606348,11547.212695,77222.426198
231.603917,-15988.448347,-8290.306550,79214.274493
231.606455,7550.100608,14359.995275,80746.465489
231.608993,-38786.791361,-9474.636058,80440.027290
231.611530,-4441.235652,-13767.830521,79061.055394
231.614068,14359.995275,1924.535449,77528.864398
231.616606,3997.112087,2368.659014,79827.150892
231.619144,7105.977043,-12139.377449,76762.768900
231.621682,12139.377449,9622.677246,77528.864398
231.624220,-2812.782580,-2072.576638,80899.684589
231.626758,-12139.377449,-6069.688724,80746.465489
231.629296,-15248.242405,13471.748144,79367.493593
231.631834,-23390.507767,-1036.288319,79061.055394
231.634372,3256.906145,19837.519246,80593.246390
231.636910,-12731.542202,1184.329507,77835.302597
231.639448,-17024.736666,-7402.059420,80899.684589
231.641986,22206.178260,38934.832549,78907.836294
231.644531,36862.255912,-48409.468607,80133.589091
231.647075,-21021.848753,41303.491564,81359.341888
231.649620,35677.926404,-11695.253884,79980.369991
231.652164,29460.196492,-41599.573940,71400.100414
231.654708,-8438.347739,39230.914926,77835.302597
231.657252,19985.560434,-5477.523971,81359.341888
231.659797,13767.830521,-6513.812290,81206.122788
231.662341,15840.407159,7846.182985,78754.617194
231.664885,22946.384202,-13175.665768,75843.454302
231.667429,23242.466579,-12435.459826,77988.521696
231.669974,3552.988522,12139.377449,75996.673402
231.672518,4145.153275,-4885.359217,79520.712692
231.675062,3404.947333,1776.494261,81512.560987
231.677607,11251.130318,11843.295072,79827.150892
231.680151,24722.878463,-7550.100608,76609.549800
231.682695,19837.519246,-11399.171507,77222.426198
231.685239,888.247130,20725.766376,79827.150892
231.687784,18653.189738,-18653.189738,79061.055394
231.690328,27979.784608,24722.878463,78601.398095
231.692872,23982.672521,-20133.601622,78294.959896
231.695416,7105.977043,14359.995275,78601.398095
231.697961,-29460.196492,30052.361245,83657.628382
231.700505,10658.965565,-78757.912229,75383.797003
231.703049,18505.148550,2516.700203,76609.549800
231.705593,-21614.013506,30940.608376,82585.094684
231.708138,-3256.906145,-40711.326810,77528.864398
231.710682,20873.807564,28423.908173,76762.768900
231.713226,-30644.525999,-3552.988522,81206.122788
231.715771,4885.359217,10214.842000,82125.437386
231.718315,-6957.935855,-14063.912898,76609.549800
231.720859,-29460.196492,-29312.155303,79214.274493
231.723403,12287.418637,16876.695478,79827.150892
231.725948,888.247130,-2368.659014,80593.246390
231.728492,-2664.741391,-12731.542202,77835.302597
231.731036,2368.659014,12879.583391,79520.712692
231.733580,4885.359217,4145.153275,79827.150892
231.736125,-9622.677246,-10807.006753,79214.274493
231.738669,-31236.690752,15396.283594,80593.246390
231.741213,-33901.432144,-27091.537477,79214.274493
231.743757,-18505.148550,-25167.002028,76609.549800
231.746306,4441.235652,-12287.418637,76303.111601
231.748855,-3256.906145,-15248.242405,78141.740796
231.751405,2960.823768,-9770.718434,78907.836294
231.753954,66174.411215,-4885.359217,76915.987999
231.756503,4589.276840,35974.008781,81359.341888
231.759052,-7105.977043,-26055.249158,82125.437386
231.761601,13915.871710,32272.979071,74770.920605
231.764150,10807.006753,-10214.842000,80133.589091
231.766699,-3701.029710,5921.647536,83657.628382
231.769248,30940.608376,-24870.919651,78141.740796
231.771797,12879.583391,-1924.535449,76149.892501
231.774346,4441.235652,-6661.853478,78754.617194
231.776895,23094.425390,11695.253884,78448.178995
231.779444,9474.636058,3404.947333,76456.330700
231.781993,6513.812290,-9622.677246,79980.369991
231.784542,7846.182985,10955.047942,81818.999186
231.787091,18653.189738,-16876.695478,78141.740796
231.789640,21169.889941,-24722.878463,75690.235202
231.792189,-1184.329507,6217.729913,78601.398095
231.794738,18653.189738,-14359.995275,79367.493593
231.797287,44116.274143,21614.013506,77375.645298
231.799836,20429.683999,-15396.283594,77682.083497
231.802385,-3404.947333,-2220.617826,79367.493593
231.804934,-15988.448347,22206.178260,82585.094684
231.807483,19689.478057,-55515.445650,75690.235202
231.810032,-2368.659014,26203.290347,75690.235202
231.812582,-17468.860231,22650.301825,83197.971083
231.815131,7698.141797,-10658.965565,80899.684589
231.817680,-24722.878463,-4441.235652,77375.645298
231.820229,-25759.166782,-11547.212695,81665.780087
231.822778,12879.583391,7994.224174,81052.903688
231.825327,-24278.754898,-148.041188,78601.398095
231.827876,-4145.153275,-10362.883188,77988.521696
231.830425,19689.478057,-7846.182985,77835.302597
231.832974,7105.977043,-5033.400406,79520.712692
231.835523,148.041188,10807.006753,76456.330700
231.838072,4885.359217,1184.329507,78601.398095
231.840621,9770.718434,-12287.418637,80593.246390
231.843170,-10955.047942,3701.029710,80286.808190
231.845719,-33901.432144,10362.883188,80440.027290
231.848273,-36270.091158,-18949.272115,79061.055394
231.850826,-20429.683999,-26795.455100,77069.207099
231.853380,9178.553681,-11991.336260,75843.454302
231.855933,1480.411884,-8882.471304,77682.083497
231.858487,-1924.535449,-19393.395680,78907.836294
231.861040,65730.287650,-296.082377,77835.302597
231.863594,11103.089130,40859.367998,79980.369991
231.866147,-11399.171507,-31384.731941,82891.532884
231.868701,30644.525999,2368.659014,72166.195912
231.871254,6069.688724,2368.659014,77222.426198
231.873808,6217.729913,2220.617826,82278.656485
231.876361,23390.507767,-22946.384202,78754.617194
231.878915,13175.665768,-1184.329507,75690.235202
231.881469,4737.318029,-7698.141797,78294.959896
231.884022,30496.484810,5329.482782,78141.740796
231.886576,11991.336260,4145.153275,76303.111601
231.889129,-9178.553681,-2072.576638,80286.808190
231.891683,-5181.441594,-3552.988522,82585.094684
231.894236,21614.013506,8142.265362,79827.150892
231.896790,32124.937883,-11843.295072,75843.454302
231.899343,11251.130318,2516.700203,75690.235202
231.901897,5477.523971,-8438.347739,81206.122788
231.904450,29608.237680,24130.713709,79980.369991
231.907004,28275.866984,-11843.295072,77375.645298
231.909557,19689.478057,18357.107362,78294.959896
231.912111,-21465.972318,29608.237680,82738.313784
231.914664,-6217.729913,-80090.282924,75843.454302
231.917218,12731.542202,23686.590144,75383.797003
231.919772,-33161.226202,38194.626607,85036.600278
231.922325,5921.647536,-31532.773129,79980.369991
231.924879,6365.771101,22650.301825,75537.016103
231.927432,-26647.413912,-8882.471304,80746.465489
231.929986,1184.329507,4737.318029,82278.656485
231.932539,-28275.866984,3404.947333,79980.369991
231.935093,-20429.683999,-18357.107362,79520.712692
231.937646,17764.942608,444.123565,79061.055394
231.940200,14063.912898,9030.512492,79214.274493
231.942753,-15692.365970,1184.329507,77682.083497
231.945307,8142.265362,-1036.288319,78601.398095
231.947860,1332.370696,-11103.089130,81359.341888
231.950417,-23982.672521,15396.283594,83197.971083
231.952974,-21169.889941,3849.070898,78754.617194
231.955531,4145.153275,3404.947333,77682.083497
231.958087,-24722.878463,1332.370696,78907.836294
231.960644,-10955.047942,-8438.347739,79980.369991
231.963201,9474.636058,22058.137072,77682.083497
231.965758,2072.576638,-66914.617157,82125.437386
231.968314,-10066.800811,52258.539505,81512.560987
231.970871,48557.509795,-17912.983796,78601.398095
231.973428,16432.571912,-34937.720462,73085.510509
231.975985,-15544.324782,45744.727216,77988.521696
231.978541,28275.866984,-11103.089130,82891.532884
231.981098,7994.224174,6217.729913,80899.684589
231.983655,27535.661042,-16728.654289,77835.302597
231.986212,20133.601622,-7105.977043,75690.235202
231.988769,3552.988522,-1628.453072,80286.808190
231.991325,19097.313304,2072.576638,75843.454302
231.993882,26351.331535,-10510.924376,78448.178995
231.996439,4589.276840,-21465.972318,80133.589091
231.998996,-8142.265362,20429.683999,81972.218286
232.001552,35233.802839,-4589.276840,75996.673402
232.004109,15396.283594,-26943.496289,75230.577904
232.006666,15840.407159,8586.388927,79827.150892
232.009223,39823.079680,20133.601622,77222.426198
232.011779,20133.601622,-25315.043216,78754.617194
232.014336,2220.617826,-3256.906145,77222.426198
232.016893,7698.141797,5625.565159,78754.617194
232.019450,-3849.070898,-22650.301825,77222.426198
232.022006,-26055.249158,-5477.523971,79520.712692
232.024563,-15248.242405,22798.343014,83964.066581
232.027120,5921.647536,-14359.995275,79980.369991
232.029677,-15988.448347,-5773.606348,76456.330700
232.032233,-740.205942,-4885.359217,77528.864398
232.034790,5033.400406,15248.242405,80133.589091
232.037347,-31088.649564,-296.082377,81359.341888
232.039904,4589.276840,-12435.459826,77682.083497
232.042460,-6217.729913,-17172.777854,78141.740796
232.045017,-10066.800811,-6365.771101,81512.560987
232.047574,10510.924376,15840.407159,76609.549800
232.050131,2072.576638,-26055.249158,76456.330700
232.052689,4145.153275,-19097.313304,80440.027290
232.055248,-27387.619854,25611.125593,82431.875585
232.057807,-23834.631332,-3552.988522,79520.712692
232.060365,7402.059420,6069.688724,77528.864398
232.062924,-25907.207970,9178.553681,78754.617194
232.065483,-8438.347739,-10510.924376,80133.589091
232.068041,4441.235652,23982.672521,78294.959896
232.070600,-5329.482782,-52850.704259,76149.892501
232.073159,44264.315332,43968.232955,78601.398095
232.075717,47373.180288,29016.072926,81052.903688
232.078276,-15544.324782,-34493.596897,81665.780087
232.080835,888.247130,41895.656317,77069.207099
232.083394,22058.137072,-20429.683999,83044.751983
232.085952,1924.535449,7994.224174,83197.971083
232.088511,32272.979071,-14508.036463,77375.645298
232.091070,27091.537477,-9622.677246,74311.263306
232.093628,-3849.070898,-2368.659014,81359.341888
232.096187,11991.336260,4885.359217,78141.740796
232.098746,15396.283594,-444.123565,75537.016103
232.101304,13915.871710,3256.906145,80746.465489
232.103863,11103.089130,296.082377,82125.437386
232.106422,3108.864956,-4441.235652,79827.150892
232.108980,5329.482782,-10658.965565,74924.139704
232.111539,12731.542202,-10510.924376,80440.027290
232.114098,41451.532752,29904.320057,79367.493593
232.116656,43376.068201,-15100.201217,76456.330700
232.119215,-2220.617826,7105.977043,78907.836294
232.121774,-26055.249158,22354.219448,82278.656485
232.124332,17616.901420,-64397.916954,75383.797003
232.126891,-888.247130,35974.008781,76303.111601
232.129450,-14211.954086,19985.560434,82585.094684
232.132008,4145.153275,-14063.912898,81359.341888
232.134567,-21762.054695,-4737.318029,77988.521696
232.137126,1480.411884,-3108.864956,76762.768900
232.139684,5329.482782,6661.853478,80899.684589
232.142243,-25315.043216,-592.164754,80899.684589
232.144802,-740.205942,-23982.672521,77069.207099
232.147360,2368.659014,-3701.029710,78754.617194
232.149919,-12287.418637,-444.123565,83044.751983
232.152478,15544.324782,3108.864956,75230.577904
232.155038,-7105.977043,-5773.606348,76303.111601
232.157599,-13619.789333,5921.647536,83504.409282
232.160160,-1924.535449,17764.942608,82125.437386
232.162720,-22798.343014,-15692.365970,76456.330700
232.165281,4441.235652,24574.837274,77528.864398
232.167841,-18357.107362,11547.212695,77222.426198
232.170402,-18061.024985,-11843.295072,81665.780087
232.172962,19245.354492,19393.395680,79367.493593
232.175523,34493.596897,-61733.175563,81052.903688
232.178084,-40563.285622,42487.821071,82431.875585
232.180644,31088.649564,-33605.349767,79061.055394
232.183205,55367.404462,-45300.603650,67722.842023
232.185765,-10807.006753,40415.244433,76149.892501
232.188326,14656.077652,-11843.295072,84730.162079
232.190886,9178.553681,1776.494261,80593.246390
232.193447,21317.931130,-2664.741391,76456.330700
232.196008,35381.844028,-6069.688724,74770.920605
232.198568,29312.155303,5625.565159,80286.808190
232.201129,-6217.729913,11399.171507,76456.330700
232.203689,1036.288319,-1332.370696,79214.274493
232.206250,12435.459826,888.247130,83504.409282
232.208810,13027.624579,-740.205942,79520.712692
232.211371,17024.736666,-21614.013506,74464.482406
232.213932,26795.455100,10362.883188,76456.330700
232.216492,24130.713709,7994.224174,80899.684589
232.219053,13915.871710,-4885.359217,79367.493593
232.221613,18505.148550,-6513.812290,77835.302597
232.224174,25759.166782,12287.418637,77988.521696
232.226735,-24722.878463,18801.230927,83197.971083
232.229295,-21169.889941,-19837.519246,79061.055394
232.231856,10214.842000,-1924.535449,79520.712692
232.234416,-18801.230927,11399.171507,81052.903688
232.236977,-22354.219448,-38490.708984,76915.987999
232.239537,35085.761651,18505.148550,73545.167808
232.242098,-21910.095883,7550.100608,81512.560987
232.244659,-12731.542202,-1184.329507,83197.971083
232.247219,6809.894666,5033.400406,76456.330700
232.249780,-19245.354492,-35233.802839,78294.959896
232.252340,20577.725188,1480.411884,79827.150892
232.254901,9622.677246,8290.306550,78294.959896
232.257462,-12731.542202,-6661.853478,75690.235202
232.260024,-1924.535449,-740.205942,80746.465489
232.262586,-6809.894666,13027.624579,82738.313784
232.265147,-22946.384202,-1332.370696,79827.150892
232.267709,888.247130,15544.324782,79827.150892
232.270271,-20873.807564,3701.029710,77069.207099
232.272832,-22650.301825,1036.288319,81052.903688
232.275394,16284.530724,29312.155303,79061.055394
232.277955,-6217.729913,-63361.628635,76303.111601
232.280517,27387.619854,53886.992578,80133.589091
232.283079,60252.763679,18949.272115,79061.055394
232.285640,-9030.512492,-41303.491564,71246.881314
232.288202,-19245.354492,53886.992578,77069.207099
232.290763,20873.807564,-17616.901420,83964.066581
232.293325,1332.370696,6069.688724,82278.656485
232.295887,30200.402434,-11103.089130,77069.207099
232.298448,31384.731941,-10362.883188,75230.577904
232.301010,-7402.059420,-5773.606348,81052.903688
232.303571,888.247130,-6809.894666,77222.426198
232.306133,32272.979071,-148.041188,75537.016103
232.308695,11843.295072,4737.318029,80286.808190
232.311256,-1628.453072,-6809.894666,82278.656485
232.313818,12139.377449,-17764.942608,77069.207099
232.316379,24130.713709,2812.782580,75690.235202
232.318941,35825.967593,10807.006753,78601.398095
232.321503,25907.207970,-7254.018232,79214.274493
232.324064,1628.453072,-11843.295072,79827.150892
232.326626,16728.654289,11991.336260,77528.864398
232.329187,-13767.830521,9770.718434,80286.808190
232.331749,-17764.942608,-55515.445650,77069.207099
232.334311,13471.748144,4145.153275,78601.398095
232.336872,-29164.114115,27387.619854,83044.751983
232.339434,-11251.130318,-46484.933158,77528.864398
232.341995,23686.590144,22502.260637,74311.263306
232.344557,-11399.171507,11251.130318,81052.903688
232.347119,-19541.436869,-6217.729913,83197.971083
232.349680,6069.688724,5921.647536,77528.864398
232.352242,-19985.560434,-33901.432144,78907.836294
232.354803,18801.230927,3256.906145,79827.150892
232.357365,10807.006753,16876.695478,76456.330700
232.359927,-8734.430116,-24278.754898,76303.111601
232.362488,-6513.812290,7550.100608,80286.808190
232.365050,-15248.242405,14656.077652,83351.190182
232.367611,-13323.706956,-10658.965565,80286.808190
232.370173,-296.082377,9474.636058,77682.083497
232.372735,-26055.249158,-592.164754,77835.302597
232.375296,-26647.413912,-5033.400406,81512.560987
232.377858,13175.665768,25018.960840,79980.369991
232.380419,22946.384202,-74168.635388,76915.987999
232.382981,-14952.160028,51370.292375,79980.369991
232.385543,45300.603650,-24574.837274,79980.369991
232.388104,41895.656317,-47373.180288,72472.634111
232.390666,-23242.466579,60400.804867,76915.987999
232.393227,19541.436869,-18653.189738,83197.971083
232.395789,5773.606348,296.082377,81665.780087
232.398351,27535.661042,-444.123565,77069.207099
232.400912,39823.079680,-16284.530724,75537.016103
232.403474,17912.983796,-3108.864956,79673.931792
232.406036,-11695.253884,10510.924376,77682.083497
232.408597,17024.736666,1184.329507,78294.959896
232.411159,9770.718434,-3997.112087,81206.122788
232.413720,4589.276840,-6809.894666,80899.684589
232.416282,19689.478057,2516.700203,76456.330700
232.418844,18357.107362,-15692.365970,75537.016103
232.421405,31088.649564,20725.766376,78141.740796
232.423967,29756.278868,-10658.965565,78448.178995
232.426528,-3701.029710,-9622.677246,81359.341888
232.429090,10214.842000,10214.842000,79061.055394
232.431652,4885.359217,-71651.935186,74311.263306
232.434213,-15100.201217,29164.114115,78907.836294
232.436775,-11399.171507,31976.896694,83964.066581
232.439336,9918.759623,-23390.507767,79827.150892
232.441898,-30200.402434,-10362.883188,76303.111601
232.444460,740.205942,2072.576638,76609.549800
232.447021,8882.471304,10955.047942,79827.150892
232.449583,-26647.413912,-5477.523971,81512.560987
232.452144,2368.659014,2664.741391,79214.274493
232.454706,-7402.059420,-22650.301825,79980.369991
232.457268,-1036.288319,-7698.141797,81359.341888
232.459829,18209.066173,17912.983796,75996.673402
232.462390,0.000000,9622.677246,77222.426198
232.464952,-10510.924376,3849.070898,82125.437386
232.467513,-10807.006753,11399.171507,83044.751983
232.470074,-40859.367998,-27535.661042,79980.369991
232.472635,-33753.390955,-19393.395680,77222.426198
232.475196,1924.535449,-444.123565,75077.358804
232.477757,8142.265362,3997.112087,78907.836294
232.480319,-888.247130,-41007.409187,76609.549800
232.482880,51222.251186,11399.171507,82738.313784
232.485441,-8290.306550,44264.315332,82278.656485
232.488002,-20725.766376,-55515.445650,81052.903688
232.490563,1332.370696,58328.228230,78141.740796
232.493125,27239.578666,-7994.224174,78141.740796
232.495686,1036.288319,-2368.659014,81972.218286
232.498247,18357.107362,-6365.771101,76915.987999
232.500808,7994.224174,-6365.771101,76609.549800
232.503369,-2072.576638,-7550.100608,79367.493593
232.505931,30940.608376,1776.494261,79061.055394
232.508492,4885.359217,1332.370696,75996.673402
232.511053,-3256.906145,3552.988522,81512.560987
232.513614,27683.702231,-6513.812290,80286.808190
232.516175,7550.100608,-14656.077652,77682.083497
232.518736,16432.571912,1480.411884,75843.454302
232.521298,39823.079680,12139.377449,77988.521696
232.523859,32421.020260,-13175.665768,76149.892501
232.526420,-3108.864956,-14804.118840,81206.122788
232.528981,21614.013506,2812.782580,77835.302597
232.531542,-3404.947333,-8882.471304,75690.235202
232.534104,-27387.619854,-29904.320057,77988.521696
232.536665,3997.112087,5625.565159,81206.122788
232.539226,-11843.295072,15248.242405,82125.437386
232.541787,-23094.425390,-43968.232955,77375.645298
232.544348,26795.455100,14952.160028,74004.825107
232.546909,-19245.354492,13027.624579,80593.246390
232.549471,-26499.372724,-11399.171507,82278.656485
232.552032,5773.606348,-2516.700203,77988.521696
232.554593,-12879.583391,-19541.436869,80593.246390
232.557154,6513.812290,-296.082377,80593.246390
232.559715,18653.189738,5477.523971,74464.482406
232.562277,-10807.006753,-6957.935855,76915.987999
232.564838,-15544.324782,22502.260637,83504.409282
232.567399,-10362.883188,1776.494261,82738.313784
232.569960,-32124.937883,-33309.267390,77988.521696
232.572521,-29016.072926,-296.082377,75996.673402
232.575082,-296.082377,-2368.659014,75230.577904
232.577644,-1924.535449,-888.247130,79214.274493
232.580205,-3256.906145,-55367.404462,76762.768900
232.582766,45004.521274,35381.844028,83810.847481
232.585327,5773.606348,48853.592172,81818.999186
232.587888,-22798.343014,-58180.187041,82431.875585
232.590449,40267.203245,36418.132346,76149.892501
232.593010,22798.343014,148.041188,77069.207099
232.595572,-3108.864956,-12435.459826,82431.875585
232.598133,14211.954086,148.041188,75996.673402
232.600694,4589.276840,-1776.494261,76456.330700
232.603255,14508.036463,-16876.695478,79214.274493
232.605816,36270.091158,5181.441594,78754.617194
232.608377,14656.077652,-3256.906145,75077.358804
232.610939,4885.359217,-296.082377,79673.931792
232.613500,17172.777854,-9918.759623,80286.808190
232.616061,14211.954086,8142.265362,77988.521696
232.618622,10658.965565,-19837.519246,76915.987999
232.621183,34937.720462,14656.077652,76915.987999
232.623744,37158.338288,-7254.018232,75843.454302
232.626306,-592.164754,-12583.501014,80746.465489
232.628867,16728.654289,10214.842000,80440.027290
232.631428,1776.494261,-16728.654289,75843.454302
232.633989,-23538.548956,-11991.336260,78141.740796
232.636550,0.000000,33013.185013,83810.847481
232.639111,7994.224174,-22650.301825,80899.684589
232.641673,-31236.690752,-12731.542202,76609.549800
232.644234,4589.276840,3849.070898,76303.111601
232.646795,5921.647536,11399.171507,80133.589091
232.649356,-27387.619854,-11547.212695,81206.122788
232.651917,1776.494261,-5921.647536,77682.083497
232.654478,-8586.388927,-16580.613101,81052.903688
232.657039,-592.164754,-11251.130318,80593.246390
232.659601,6809.894666,4589.276840,75843.454302
232.662162,-1184.329507,-15248.242405,74924.139704
232.664723,-9918.759623,8734.430116,81206.122788
232.667285,-24278.754898,10658.965565,82738.313784
232.669846,-6069.688724,-17172.777854,78754.617194
232.672407,-26499.372724,-9622.677246,76303.111601
232.674968,-34641.638086,888.247130,80593.246390
232.677529,22946.384202,26055.249158,79367.493593
232.680089,6365.771101,-76833.376780,74158.044206
232.682650,23390.507767,67210.699534,81818.999186
232.685211,55959.569215,29608.237680,81052.903688
232.687772,-1332.370696,-45892.768404,78141.740796
232.690333,-13915.871710,67062.658345,79673.931792
232.692893,34789.679274,-9918.759623,80440.027290
232.695454,21465.972318,148.041188,79980.369991
232.698015,18801.230927,5329.482782,76456.330700
232.700576,29164.114115,-18505.148550,75537.016103
232.703137,-2664.741391,-1776.494261,81359.341888
232.705697,-4885.359217,-4885.359217,79061.055394
232.708258,12583.501014,-3108.864956,77069.207099
232.710819,17468.860231,10214.842000,81206.122788
232.713380,14359.995275,-16284.530724,79980.369991
232.715940,21317.931130,8882.471304,77375.645298
232.718501,21317.931130,3108.864956,75843.454302
232.721062,13619.789333,-2072.576638,78448.178995
232.723623,36862.255912,1480.411884,78448.178995
232.726184,35381.844028,17616.901420,77528.864398
232.728744,-22354.219448,12879.583391,82585.094684
232.731305,-12731.542202,-63805.752200,75383.797003
232.733866,7550.100608,3997.112087,78294.959896
232.736427,-38934.832549,33457.308578,84270.504780
232.738988,-888.247130,-36122.049970,79520.712692
232.741548,9770.718434,5921.647536,74464.482406
232.744109,-26943.496289,3849.070898,79980.369991
232.746670,740.205942,7846.182985,81206.122788
232.749231,-9030.512492,-2960.823768,80133.589091
232.751792,-6513.812290,-19245.354492,78907.836294
232.754352,20133.601622,296.082377,80746.465489
232.756913,2812.782580,3849.070898,76762.768900
232.759474,-7254.018232,-13619.789333,74770.920605
232.762035,-7105.977043,11547.212695,79827.150892
232.764595,-22650.301825,5625.565159,84576.942979
232.767156,-9622.677246,-28571.949361,79214.274493
232.769716,-28868.031738,-296.082377,75996.673402
232.772276,-20133.601622,7550.100608,77988.521696
232.774836,10955.047942,4737.318029,78907.836294
232.777396,-9326.594869,-23686.590144,79367.493593
232.779955,49593.798114,-444.123565,82585.094684
232.782515,-11547.212695,52554.621882,81512.560987
232.785075,-25167.002028,-44560.397708,81972.218286
232.787635,15692.365970,55811.528027,78907.836294
232.790195,36862.255912,-592.164754,77682.083497
232.792754,-7550.100608,-8290.306550,83197.971083
232.795314,17024.736666,-444.123565,76303.111601
232.797874,11251.130318,-3701.029710,74311.263306
232.800434,-6513.812290,-10955.047942,79980.369991
232.802994,24130.713709,1776.494261,80593.246390
232.805553,10362.883188,-3849.070898,76609.549800
232.808113,9326.594869,6661.853478,79214.274493
232.810673,13027.624579,-10214.842000,80593.246390
232.813233,24574.837274,-2368.659014,78907.836294
232.815793,23982.672521,7402.059420,74311.263306
232.818352,7698.141797,-3552.988522,78448.178995
232.820912,30200.402434,-9770.718434,80133.589091
232.823472,33753.390955,29016.072926,78448.178995
232.826032,-24278.754898,28423.908173,82585.094684
232.828592,1924.535449,-76833.376780,75383.797003
232.831151,-3256.906145,19393.395680,78448.178995
232.833711,-29016.072926,41599.573940,85343.038477
232.836271,9622.677246,-25463.084405,78907.836294
232.838831,-14952.160028,-11103.089130,75077.358804
232.841391,-20133.601622,2812.782580,80440.027290
232.843950,1776.494261,12731.542202,81512.560987
232.846510,-4737.318029,-9918.759623,78141.740796
232.849070,-14508.036463,-28275.866984,79520.712692
232.851630,17616.901420,11547.212695,80593.246390
232.854190,-4441.235652,888.247130,77988.521696
232.856749,-4293.194464,-10066.800811,75537.016103
232.859309,148.041188,7698.141797,78141.740796
232.861869,-20725.766376,7550.100608,84117.285680
232.864429,-6513.812290,-5181.441594,78907.836294
232.866989,-10807.006753,-3404.947333,77069.207099
232.869548,-20725.766376,16580.613101,78294.959896
232.872108,22946.384202,15988.448347,80746.465489
232.874667,-2368.659014,-63509.669824,75230.577904
232.877226,20725.766376,40415.244433,83351.190182
232.879786,22798.343014,48853.592172,81818.999186
232.882345,-30644.525999,-53886.992578,81665.780087
232.884904,28423.908173,39971.120868,76915.987999
232.887463,37454.420665,2220.617826,75996.673402
232.890023,-3256.906145,-17468.860231,82585.094684
232.892582,13767.830521,5329.482782,77069.207099
232.895141,11103.089130,-3997.112087,75843.454302
232.897700,7698.141797,-8734.430116,77988.521696
232.900260,10955.047942,2960.823768,80593.246390
232.902819,32865.143825,-8438.347739,76149.892501
232.905378,1776.494261,-5477.523971,79367.493593
232.907938,-4293.194464,-5625.565159,79673.931792
232.910497,23242.466579,-15248.242405,78294.959896
232.913056,41599.573940,11991.336260,74311.263306
232.915615,20133.601622,-13619.789333,76303.111601
232.918175,6809.894666,-17172.777854,78907.836294
232.920734,22650.301825,23390.507767,79827.150892
232.923293,-16432.571912,18061.024985,82585.094684
232.925852,-1776.494261,-67062.658345,75077.358804
232.928412,8586.388927,4737.318029,77528.864398
232.930971,-15100.201217,18061.024985,81052.903688
232.933530,-20429.683999,-36122.049970,77222.426198
232.936090,20133.601622,11399.171507,73851.606007
232.938649,-19985.560434,6069.688724,81359.341888
232.941208,-8734.430116,3849.070898,82431.875585
232.943767,2812.782580,444.123565,77835.302597
232.946327,-20873.807564,-32272.979071,78907.836294
232.948886,12583.501014,7846.182985,81665.780087
232.951445,7105.977043,1184.329507,77528.864398
232.954004,-17320.819043,-4589.276840,75843.454302
232.956564,-11399.171507,11399.171507,80593.246390
232.959123,-9622.677246,2368.659014,83197.971083
232.961682,-28423.908173,-50334.004056,78448.178995
232.964242,-10214.842000,-3701.029710,75537.016103
232.966801,-27979.784608,-5181.441594,78754.617194
232.969360,13915.871710,7846.182985,81972.218286
232.971919,33013.185013,-72392.141128,71553.319513
232.974477,-296.082377,46781.015534,79061.055394
232.977035,46929.056723,11843.295072,81972.218286
232.979593,45300.603650,-66026.370026,74464.482406
232.982151,-30644.525999,64545.958142,77528.864398
232.984709,25315.043216,-11103.089130,82891.532884
232.987267,22206.178260,-7254.018232,79367.493593
232.989825,7550.100608,9326.594869,75996.673402
232.992383,37158.338288,-29164.114115,74311.263306
232.994941,19097.313304,11843.295072,79061.055394
232.997500,-10214.842000,5033.400406,79980.369991
233.000058,13027.624579,-16432.571912,78754.617194
233.002616,23686.590144,-2220.617826,79367.493593
233.005174,20873.807564,15840.407159,79980.369991
233.007732,17616.901420,-7254.018232,77682.083497
233.010290,4293.194464,15840.407159,76915.987999
233.012848,46336.891969,-13175.665768,77988.521696
233.015406,20281.642811,12583.501014,78448.178995
233.017964,-18357.107362,33309.267390,83044.751983
233.020522,6513.812290,-77573.582722,74770.920605
233.023080,-7105.977043,30940.608376,78141.740796
233.025638,-31236.690752,35677.926404,86722.010374
233.028196,11991.336260,-20577.725188,79214.274493
233.030754,-14804.118840,-8142.265362,75690.235202
233.033312,-14508.036463,5181.441594,78754.617194
233.035870,5921.647536,10807.006753,81052.903688
233.038428,-18357.107362,-14952.160028,79520.712692
233.040986,-148.041188,-2072.576638,78601.398095
233.043544,2812.782580,-3701.029710,80899.684589
233.046102,8290.306550,-14656.077652,78448.178995
233.048660,-21465.972318,-740.205942,75690.235202
233.051218,-25167.002028,13619.789333,80440.027290
233.053776,-1628.453072,-10214.842000,81512.560987
233.056334,-1184.329507,-4145.153275,78294.959896
233.058892,-7846.182985,9918.759623,78141.740796
233.061450,-45004.521274,16580.613101,81206.122788
233.064008,5329.482782,21614.013506,82891.532884
233.066566,-4885.359217,-70171.523302,74924.139704
233.069124,27239.578666,49593.798114,81972.218286
233.071682,28719.990550,47669.262665,82125.437386
233.074240,-30792.567187,-49001.633360,82125.437386
233.076798,-26055.249158,66618.534780,79214.274493
233.079355,34493.596897,-10214.842000,81052.903688
233.081913,24574.837274,-11991.336260,80133.589091
233.084470,19689.478057,16728.654289,76915.987999
233.087028,26203.290347,-17024.736666,75537.016103
233.089585,-4737.318029,-10066.800811,78754.617194
233.092143,3701.029710,2812.782580,79061.055394
233.094700,25759.166782,-12879.583391,78294.959896
233.097258,14211.954086,-740.205942,79520.712692
233.099815,11547.212695,15692.365970,80593.246390
233.102373,12879.583391,-9474.636058,78907.836294
233.104931,3701.029710,7994.224174,77069.207099
233.107488,39675.038491,-10066.800811,78754.617194
233.110046,29756.278868,19985.560434,77528.864398
233.112603,-13915.871710,35233.802839,83504.409282
233.115161,8142.265362,-66322.452403,75690.235202
233.117718,-15840.407159,26943.496289,77682.083497
233.120276,-18949.272115,27239.578666,85036.600278
233.122833,13471.748144,-19393.395680,80286.808190
233.125391,-24870.919651,-9770.718434,75383.797003
233.127948,444.123565,7550.100608,76609.549800
233.130506,-148.041188,8142.265362,81206.122788
233.133063,-23094.425390,-4737.318029,79214.274493
233.135621,-3552.988522,-8586.388927,78448.178995
233.138179,2220.617826,-3552.988522,80133.589091
233.140736,-11843.295072,-2368.659014,81052.903688
233.143294,2664.741391,16136.489536,76609.549800
233.145851,-9030.512492,-3404.947333,76303.111601
233.148409,-19245.354492,3108.864956,83351.190182
233.150966,-2960.823768,-3256.906145,80440.027290
233.153524,-4737.318029,-3552.988522,77069.207099
233.156081,-37010.297100,23094.425390,80286.808190
233.158639,9030.512492,21614.013506,82585.094684
233.161196,-10955.047942,-71799.976374,75996.673402
233.163754,2812.782580,58180.187041,79980.369991
233.166311,51370.292375,18357.107362,82278.656485
233.168869,20577.725188,-59216.475360,75996.673402
233.171427,-29904.320057,64397.916954,79061.055394
233.173984,40267.203245,-9178.553681,80593.246390
233.176542,21317.931130,-10214.842000,79827.150892
233.179098,15248.242405,16136.489536,78294.959896
233.181655,31828.855506,-19837.519246,75537.016103
233.184212,-11251.130318,-3997.112087,77682.083497
233.186769,444.123565,3552.988522,79980.369991
233.189326,29904.320057,-10955.047942,78294.959896
233.191882,19393.395680,-3997.112087,78141.740796
233.194439,24426.796086,-5033.400406,78448.178995
233.196996,33457.308578,7254.018232,76915.987999
233.199553,2516.700203,-1628.453072,75537.016103
233.202109,20577.725188,-23686.590144,79214.274493
233.204666,42191.738694,39230.914926,78601.398095
233.207223,-22502.260637,30792.567187,83197.971083
233.209780,4737.318029,-77129.459156,74617.701505
233.212336,-1924.535449,23834.631332,76456.330700
233.214893,-34197.514520,31828.855506,87028.448573
233.217450,12287.418637,-22650.301825,80746.465489
233.220007,-11843.295072,-4441.235652,74464.482406
233.222564,-28127.825796,-2812.782580,81206.122788
233.225120,4885.359217,6513.812290,82431.875585
233.227677,-8438.347739,-16432.571912,77069.207099
233.230234,-10955.047942,-15100.201217,78294.959896
233.232791,6217.729913,3849.070898,80746.465489
233.235347,6069.688724,-2368.659014,79520.712692
233.237904,-4737.318029,-2516.700203,74924.139704
233.240461,-23242.466579,6957.935855,79827.150892
233.243018,-10658.965565,2220.617826,83351.190182
233.245574,-19097.313304,-48853.592172,77988.521696
233.248131,-6957.935855,-6069.688724,75383.797003
233.250688,-27683.702231,9326.594869,77528.864398
233.253245,888.247130,-22502.260637,80593.246390
233.255802,47521.221476,-23390.507767,74924.139704
233.258358,-3108.864956,52258.539505,77375.645298
233.260915,-15692.365970,-53146.786636,81665.780087
233.263472,78609.871040,-33309.267390,72779.072310
233.266029,-5181.441594,22206.178260,72932.291410
233.268585,1184.329507,-15396.283594,84423.723880
233.271142,27535.661042,-11547.212695,78141.740796
233.273699,11251.130318,12731.542202,77682.083497
233.276256,41007.409187,-13323.706956,75383.797003
233.278812,21317.931130,1184.329507,77069.207099
233.281368,11843.295072,1184.329507,78294.959896
233.283923,-296.082377,-7105.977043,80746.465489
233.286479,18061.024985,13175.665768,81206.122788
233.289034,18209.066173,4293.194464,79061.055394
233.291590,20577.725188,10066.800811,76456.330700
233.294145,44708.438897,-10807.006753,75383.797003
233.296701,-3552.988522,-11991.336260,79061.055394
233.299256,12583.501014,17616.901420,81665.780087
233.301811,13175.665768,-12731.542202,75690.235202
233.304367,-40267.203245,-13915.871710,78754.617194
233.306922,740.205942,-3256.906145,81359.341888
233.309478,10955.047942,-10510.924376,80746.465489
233.312033,-27979.784608,-11251.130318,76456.330700
233.314589,4589.276840,10955.047942,76456.330700
233.317144,-2516.700203,9770.718434,82125.437386
233.319700,-19541.436869,-1480.411884,81512.560987
233.322255,5329.482782,-1924.535449,77069.207099
233.324810,-13175.665768,-12435.459826,81206.122788
233.327366,-6365.771101,-2368.659014,81818.999186
233.329921,740.205942,4145.153275,75996.673402
233.332477,-14508.036463,-4145.153275,76762.768900
233.335032,-15544.324782,2220.617826,81512.560987
233.337588,-5625.565159,-13915.871710,80133.589091
233.340143,-2516.700203,-5625.565159,75537.016103
233.342698,-36122.049970,13767.830521,79520.712692
233.345254,5329.482782,-4293.194464,83197.971083
233.347809,25759.166782,-71651.935186,71706.538613
233.350365,6661.853478,55367.404462,80286.808190
233.352920,49889.880491,12139.377449,82585.094684
233.355476,27239.578666,-57588.022288,74924.139704
233.358031,-31236.690752,62769.463882,78601.398095
233.360587,35825.967593,-9030.512492,81359.341888
233.363142,24278.754898,-11399.171507,79980.369991
233.365697,20725.766376,20281.642811,76762.768900
233.368253,40119.162056,-16876.695478,75843.454302
233.370808,4737.318029,7846.182985,78907.836294
233.373364,-2960.823768,-5329.482782,79520.712692
233.375919,15988.448347,-11251.130318,80133.589091
233.378475,25611.125593,26499.372724,80440.027290
233.381030,15988.448347,-6661.853478,78907.836294
233.383585,21762.054695,2960.823768,77375.645298
233.386140,28275.866984,-888.247130,74617.701505
233.388694,6365.771101,-31384.731941,78907.836294
233.391249,32717.102636,21465.972318,79214.274493
233.393804,-6069.688724,6661.853478,78294.959896
233.396358,-31384.731941,-44116.274143,78754.617194
233.398913,-7846.182985,1332.370696,82431.875585
233.401468,5033.400406,-7402.059420,79520.712692
233.404023,-25759.166782,-20133.601622,77222.426198
233.406577,11547.212695,17024.736666,75383.797003
233.409132,-13915.871710,4885.359217,82278.656485
233.411687,-11251.130318,-592.164754,82278.656485
233.414241,2220.617826,-12731.542202,77222.426198
233.416796,-15988.448347,-12731.542202,80593.246390
233.419351,3256.906145,12287.418637,81665.780087
233.421906,-2072.576638,-12879.583391,76303.111601
233.424460,-12139.377449,740.205942,76303.111601
233.427015,-12287.418637,14804.118840,82125.437386
233.429570,-27239.578666,-47373.180288,79214.274493
233.432124,-4145.153275,-11843.295072,75383.797003
233.434679,-31976.896694,8734.430116,79520.712692
233.437234,4145.153275,-8290.306550,82585.094684
233.439789,23538.548956,-67654.823099,71093.662214
