#time,accel_x,accel_y,accel_z
4790.963264,45152.562462,-65878.328838,-78448.178995
4790.965855,-21169.889941,30348.443622,-80440.027290
4790.968446,-26499.372724,1332.370696,-80593.246390
4790.971037,28423.908173,19097.313304,-75077.358804
4790.973628,1776.494261,592.164754,-73851.606007
4790.976220,296.082377,-23242.466579,-79673.931792
4790.978811,14359.995275,8882.471304,-82278.656485
4790.981402,-1924.535449,1776.494261,-78907.836294
4790.983993,-8438.347739,38934.832549,-74311.263306
4790.986584,14508.036463,-21910.095883,-77682.083497
4790.989175,-2960.823768,21317.931130,-80440.027290
4790.991766,4885.359217,-33901.432144,-84883.381178
4790.994357,6809.894666,8882.471304,-75996.673402
4790.996948,-3552.988522,46484.933158,-75383.797003
4790.999539,-4885.359217,-28868.031738,-78754.617194
4791.002130,13619.789333,-25463.084405,-77988.521696
4791.004721,8290.306550,-65286.164084,-82431.875585
4791.007312,-13027.624579,-58328.228230,-87334.886772
4791.009903,14508.036463,20873.807564,-84270.504780
4791.012494,12583.501014,118284.909532,-69561.471218
4791.015085,-18949.272115,-26351.331535,-72319.415011
4791.017677,12879.583391,-22058.137072,-82891.532884
4791.020268,10066.800811,30348.443622,-77988.521696
4791.022859,-18357.107362,-11103.089130,-78601.398095
4791.025450,3701.029710,-87344.301156,-84730.162079
4791.028041,30940.608376,124206.557068,-72779.072310
4791.030632,-23538.548956,116952.538836,-70787.224015
4791.033223,-17616.901420,-49889.880491,-83504.409282
4791.035814,31828.855506,10658.965565,-75230.577904
4791.038405,-16136.489536,-39082.873738,-81818.999186
4791.040996,-15396.283594,-62769.463882,-84576.942979
4791.043587,27535.661042,5625.565159,-81972.218286
4791.046178,3849.070898,62029.257940,-71553.319513
4791.048769,-8882.471304,-17468.860231,-76149.892501
4791.051360,10807.006753,49001.633360,-79980.369991
4791.053951,18061.024985,-29016.072926,-81052.903688
4791.056542,-6217.729913,-18357.107362,-77835.302597
4791.059134,-1332.370696,24574.837274,-77988.521696
4791.061725,8142.265362,-12435.459826,-75537.016103
4791.064335,-2664.741391,12435.459826,-77069.207099
4791.066944,10658.965565,7550.100608,-79061.055394
4791.069554,11399.171507,-12583.501014,-81818.999186
4791.072164,-6217.729913,-888.247130,-79367.493593
4791.074774,8142.265362,-10658.965565,-73545.167808
4791.077384,-5773.606348,18653.189738,-73085.510509
4791.079994,-740.205942,14359.995275,-82278.656485
4791.082604,12139.377449,-1924.535449,-83657.628382
4791.085214,-3849.070898,-1480.411884,-76609.549800
4791.087824,8142.265362,-16728.654289,-77528.864398
4791.090434,-1628.453072,-26943.496289,-77069.207099
4791.093044,-5033.400406,39971.120868,-78754.617194
4791.095654,15840.407159,-1036.288319,-80899.684589
4791.098263,-444.123565,-20725.766376,-78294.959896
4791.100873,1776.494261,-10658.965565,-80286.808190
4791.103483,26055.249158,-7105.977043,-75537.016103
4791.106093,-2368.659014,-129536.039850,-81359.341888
4791.108703,-13175.665768,72540.182316,-79520.712692
4791.111313,13471.748144,165065.925066,-74004.825107
4791.113923,-8142.265362,-154999.124255,-77988.521696
4791.116533,-10066.800811,98003.266721,-80286.808190
4791.119143,28719.990550,33605.349767,-73085.510509
4791.121753,-14211.954086,-191565.297790,-80746.465489
4791.124363,-11843.295072,66766.575968,-87641.324971
4791.126973,28571.949361,44856.480085,-74770.920605
4791.129583,22058.137072,-178389.632022,-79367.493593
4791.132192,-2516.700203,-43228.027013,-82585.094684
4791.134802,24574.837274,156627.577327,-76303.111601
4791.137412,11547.212695,-115768.209329,-74617.701505
4791.140022,6661.853478,22502.260637,-77222.426198
4791.142632,-11991.336260,76093.170838,-79520.712692
4791.145242,-7698.141797,-62917.505070,-80133.589091
4791.147852,17024.736666,-24426.796086,-80440.027290
4791.150462,6217.729913,23834.631332,-75843.454302
4791.153072,444.123565,-28423.908173,-80133.589091
4791.155682,10214.842000,25018.960840,-76609.549800
4791.158292,-13323.706956,38490.708984,-76762.768900
4791.160902,592.164754,4145.153275,-77222.426198
4791.163512,9474.636058,-71948.017562,-81052.903688
4791.166121,2960.823768,27091.537477,-81818.999186
4791.168738,7846.182985,12139.377449,-75996.673402
4791.171355,6217.729913,-24722.878463,-76149.892501
4791.173972,-9326.594869,48409.468607,-78754.617194
4791.176589,2664.741391,12435.459826,-78907.836294
4791.179206,8882.471304,-19245.354492,-79214.274493
4791.181822,10955.047942,4885.359217,-81206.122788
4791.184439,-3256.906145,14211.954086,-76303.111601
4791.187056,10807.006753,-6661.853478,-77375.645298
4791.189673,8882.471304,-21910.095883,-77222.426198
4791.192290,0.000000,6661.853478,-83810.847481
4791.194907,7105.977043,4589.276840,-82585.094684
4791.197524,-444.123565,11103.089130,-76456.330700
4791.200140,1036.288319,4885.359217,-71246.881314
4791.202757,11399.171507,19097.313304,-78754.617194
4791.205374,444.123565,70467.605678,-78141.740796
4791.207991,7846.182985,-58920.392983,-80593.246390
4791.210608,17912.983796,-183126.950051,-90399.268764
4791.213225,-148.041188,175724.890631,-74770.920605
4791.215841,-16728.654289,52406.580694,-69408.252119
4791.218458,-2072.576638,-73576.470635,-81512.560987
4791.221075,37898.544230,-9178.553681,-80746.465489
4791.223692,14359.995275,39971.120868,-76303.111601
4791.226309,-32717.102636,81422.653620,-75230.577904
4791.228926,24130.713709,-197931.068891,-87334.886772
4791.231542,12731.542202,-46929.056723,-77528.864398
4791.234159,-23538.548956,164473.760312,-73545.167808
4791.236776,-3404.947333,-45152.562462,-83504.409282
4791.239393,24426.796086,444.123565,-78141.740796
4791.242010,10807.006753,51074.209998,-72625.853210
4791.244627,-9474.636058,-74168.635388,-79367.493593
4791.247243,2072.576638,28868.031738,-84270.504780
4791.249860,3701.029710,9030.512492,-80440.027290
4791.252477,-3849.070898,-15248.242405,-74617.701505
4791.255094,1480.411884,21465.972318,-82431.875585
4791.257711,12287.418637,7105.977043,-82125.437386
4791.260328,1036.288319,-26499.372724,-75077.358804
4791.262945,-1776.494261,296.082377,-75230.577904
4791.265561,-444.123565,33457.308578,-79673.931792
4791.268178,4589.276840,-14656.077652,-82278.656485
4791.270795,7254.018232,-9474.636058,-81512.560987
4791.273412,-444.123565,10214.842000,-74311.263306
4791.276029,-3404.947333,-16580.613101,-76762.768900
4791.278646,19689.478057,-18357.107362,-80133.589091
4791.281263,-1924.535449,31384.731941,-79214.274493
4791.283880,2072.576638,-2072.576638,-76303.111601
4791.286497,8734.430116,-18949.272115,-81512.560987
4791.289114,2072.576638,7994.224174,-78907.836294
4791.291731,1480.411884,-18061.024985,-76303.111601
4791.294348,148.041188,7846.182985,-78294.959896
4791.296966,12731.542202,42339.779882,-78601.398095
4791.299583,-4441.235652,-35974.008781,-81206.122788
4791.302200,-4145.153275,23390.507767,-79367.493593
4791.304817,3108.864956,95930.690083,-72625.853210
4791.307434,-4145.153275,60104.722490,-71553.319513
4791.310051,17616.901420,-232720.748165,-75537.016103
4791.312668,3404.947333,-134125.316690,-82891.532884
4791.315285,-5329.482782,83495.230258,-82585.094684
4791.317902,6513.812290,29460.196492,-75537.016103
4791.320519,592.164754,-55515.445650,-79367.493593
4791.323136,9770.718434,-53442.869012,-82891.532884
4791.325753,-740.205942,33013.185013,-76456.330700
4791.328370,-4737.318029,175132.725877,-71246.881314
4791.330987,-12731.542202,-23242.466579,-78601.398095
4791.333604,-9178.553681,-100519.966924,-81665.780087
4791.336221,15692.365970,50482.045244,-79520.712692
4791.338838,-9770.718434,5477.523971,-77988.521696
4791.341455,-12435.459826,-4885.359217,-74617.701505
4791.344072,20429.683999,-9474.636058,-73238.729609
4791.346689,5625.565159,5329.482782,-79061.055394
4791.349306,-6365.771101,-16136.489536,-83810.847481
4791.351923,20281.642811,-1184.329507,-80133.589091
4791.354541,-11103.089130,30940.608376,-74004.825107
4791.357158,13619.789333,-28423.908173,-75690.235202
4791.359775,-7698.141797,-22354.219448,-79827.150892
4791.362392,592.164754,44560.397708,-80286.808190
4791.365009,15100.201217,-25907.207970,-79827.150892
4791.367626,-1628.453072,1924.535449,-78754.617194
4791.370243,-5477.523971,41895.656317,-77682.083497
4791.372860,5921.647536,9918.759623,-75843.454302
4791.375477,7105.977043,-18801.230927,-79367.493593
4791.378094,4145.153275,19689.478057,-83657.628382
4791.380711,2220.617826,12879.583391,-79827.150892
4791.383328,18801.230927,-15692.365970,-75537.016103
4791.385944,-8438.347739,21910.095883,-76149.892501
4791.388561,-3997.112087,2960.823768,-78754.617194
4791.391178,20725.766376,-8290.306550,-83964.066581
4791.393794,2664.741391,-1184.329507,-77222.426198
4791.396411,2664.741391,6957.935855,-78448.178995
4791.399028,2960.823768,73280.388258,-75537.016103
4791.401645,-6661.853478,43228.027013,-76149.892501
4791.404261,-11843.295072,162105.101298,-71553.319513
4791.406878,1480.411884,-169211.078341,-84423.723880
4791.409495,1184.329507,50334.004056,-78294.959896
4791.412111,-12287.418637,89268.836605,-78601.398095
4791.414728,-3552.988522,-96522.854837,-80133.589091
4791.417345,29164.114115,-52110.498317,-78601.398095
4791.419961,-9770.718434,192749.627297,-74770.920605
4791.422578,-12879.583391,-182682.826486,-82125.437386
4791.425195,25018.960840,31828.855506,-81972.218286
4791.427812,-34789.679274,164621.801501,-75690.235202
4791.430428,-16136.489536,-55367.404462,-74924.139704
4791.433045,3552.988522,-45004.521274,-78141.740796
4791.435662,16580.613101,21614.013506,-79367.493593
4791.438278,5477.523971,-3108.864956,-76762.768900
4791.440895,-1628.453072,-21169.889941,-82278.656485
4791.443512,-6069.688724,71503.893997,-78294.959896
4791.446129,22058.137072,-28275.866984,-79214.274493
4791.448745,-3404.947333,8734.430116,-74004.825107
4791.451362,-296.082377,13471.748144,-78448.178995
4791.453979,7698.141797,-27091.537477,-78141.740796
4791.456595,-4293.194464,-1184.329507,-79520.712692
4791.459212,-6217.729913,31828.855506,-79673.931792
4791.461829,3256.906145,-2664.741391,-80440.027290
4791.464445,5921.647536,-10955.047942,-79061.055394
4791.467062,3256.906145,20725.766376,-73238.729609
4791.469679,-13175.665768,6809.894666,-78141.740796
4791.472296,14656.077652,-19541.436869,-83351.190182
4791.474912,5329.482782,23982.672521,-79673.931792
4791.477529,-5033.400406,-15248.242405,-77069.207099
4791.480146,1480.411884,-9918.759623,-77222.426198
4791.482758,1924.535449,16432.571912,-76149.892501
4791.485371,1480.411884,-18949.272115,-80899.684589
4791.487984,444.123565,8586.388927,-80593.246390
4791.490597,2812.782580,16432.571912,-78448.178995
4791.493210,-1480.411884,-21762.054695,-78448.178995
4791.495823,3701.029710,27091.537477,-74617.701505
4791.498435,19097.313304,-123910.474691,-79367.493593
4791.501048,0.000000,-103480.790692,-85955.914876
4791.503661,13323.706956,207553.746137,-78294.959896
4791.506274,1776.494261,-12583.501014,-68182.499322
4791.508887,-7550.100608,-107329.861590,-79827.150892
4791.511500,14804.118840,80978.530055,-81665.780087
4791.514112,2516.700203,-34641.638086,-73085.510509
4791.516725,-3849.070898,-174244.478747,-87794.544071
4791.519338,-13175.665768,264697.644859,-75230.577904
4791.521951,-15692.365970,195858.492253,-75843.454302
4791.524564,3108.864956,-78461.829852,-71246.881314
4791.527177,42783.903448,-22058.137072,-77222.426198
4791.529789,-18357.107362,1332.370696,-80286.808190
4791.532402,-7550.100608,-32717.102636,-81206.122788
4791.535015,23538.548956,11843.295072,-79214.274493
4791.537628,6069.688724,3701.029710,-78294.959896
4791.540241,-1924.535449,888.247130,-74158.044206
4791.542854,13175.665768,11695.253884,-80440.027290
4791.545466,-3701.029710,-7254.018232,-76149.892501
4791.548079,-6365.771101,32272.979071,-77988.521696
4791.550692,9918.759623,-49149.674549,-78907.836294
4791.553305,3256.906145,-33753.390955,-80286.808190
4791.555918,-2664.741391,44708.438897,-79520.712692
4791.558531,6365.771101,2368.659014,-77069.207099
4791.561143,148.041188,-28868.031738,-77222.426198
4791.563756,-1036.288319,33161.226202,-79980.369991
4791.566369,11251.130318,-14211.954086,-79980.369991
4791.568982,2516.700203,-12435.459826,-79980.369991
4791.571595,1924.535449,20429.683999,-78294.959896
4791.574208,-1924.535449,41599.573940,-72472.634111
4791.576820,1776.494261,-38786.791361,-78448.178995
4791.579433,3997.112087,10955.047942,-80746.465489
4791.582046,-592.164754,14804.118840,-78448.178995
4791.584659,-296.082377,-2220.617826,-78448.178995
4791.587182,-8438.347739,23982.672521,-76456.330700
4791.589705,3552.988522,135309.646198,-71246.881314
4791.592228,-6069.688724,34197.514520,-75383.797003
4791.594751,3404.947333,-179277.879152,-84883.381178
4791.597275,16136.489536,66026.370026,-82278.656485
4791.599798,-3404.947333,-66470.493592,-80440.027290
4791.602321,21465.972318,90897.289678,-69101.813920
4791.604844,2368.659014,26795.455100,-74158.044206
4791.607367,-12583.501014,-56107.610404,-79980.369991
4791.609890,35381.844028,-63805.752200,-79980.369991
4791.612413,6957.935855,-69431.317360,-78601.398095
4791.614937,-12287.418637,-60696.887244,-84730.162079
4791.617460,9030.512492,89712.960170,-77528.864398
4791.619983,15100.201217,-1332.370696,-72625.853210
4791.622506,-1184.329507,-26055.249158,-79061.055394
4791.625029,13027.624579,38194.626607,-76609.549800
4791.627552,-7846.182985,-11547.212695,-76609.549800
4791.630075,-1480.411884,-4885.359217,-82891.532884
4791.632599,5329.482782,32124.937883,-79673.931792
4791.635122,-4293.194464,-16284.530724,-77835.302597
4791.637645,7698.141797,4293.194464,-76915.987999
4791.640168,-2368.659014,-1036.288319,-77069.207099
4791.642691,-5181.441594,21465.972318,-78754.617194
4791.645214,9178.553681,-7698.141797,-81665.780087
4791.647737,3849.070898,-9474.636058,-81206.122788
4791.650261,2960.823768,17616.901420,-72166.195912
4791.652784,-6513.812290,-16432.571912,-77069.207099
4791.655307,20133.601622,-21762.054695,-80899.684589
4791.657830,-6661.853478,34049.473332,-81052.903688
4791.660353,11991.336260,-19097.313304,-81665.780087
4791.662876,-6365.771101,-17912.983796,-75996.673402
4791.665399,10955.047942,7698.141797,-75537.016103
4791.667922,-2072.576638,-23834.631332,-76915.987999
4791.670446,12731.542202,15988.448347,-74770.920605
4791.672969,13767.830521,-3701.029710,-80440.027290
4791.675492,0.000000,32272.979071,-79673.931792
4791.678015,-7254.018232,60252.763679,-73698.386908
4791.680538,17616.901420,-111178.932488,-74924.139704
4791.683061,9770.718434,-157367.783269,-86262.353075
4791.685584,-5921.647536,199411.480775,-79520.712692
4791.688128,-3849.070898,26795.455100,-70480.785816
4791.690672,17912.983796,-118580.991908,-77222.426198
4791.693216,3997.112087,23242.466579,-83197.971083
4791.695759,-20429.683999,169655.201906,-72166.195912
4791.698303,-8882.471304,73428.429446,-68795.375720
4791.700847,25611.125593,-178537.673210,-81512.560987
4791.703391,12583.501014,-39675.038491,-89479.954166
4791.705934,-10807.006753,77869.665098,-76149.892501
4791.708478,17764.942608,-23686.590144,-72932.291410
4791.711022,26055.249158,-7550.100608,-75230.577904
4791.713566,-4145.153275,3997.112087,-77528.864398
4791.716109,7698.141797,-30496.484810,-82431.875585
4791.718653,-5181.441594,33309.267390,-76915.987999
4791.721197,3256.906145,-9326.594869,-76915.987999
4791.723741,888.247130,-1776.494261,-80286.808190
4791.726284,12879.583391,24870.919651,-76456.330700
4791.728828,8734.430116,-27979.784608,-75996.673402
4791.731372,5773.606348,-18357.107362,-79214.274493
4791.733916,1776.494261,51222.251186,-81359.341888
4791.736459,4885.359217,-18801.230927,-76915.987999
4791.739003,-1332.370696,-8586.388927,-75690.235202
4791.741547,3404.947333,41451.532752,-79214.274493
4791.744091,10955.047942,-20133.601622,-79520.712692
4791.746634,-5625.565159,-3256.906145,-80133.589091
4791.749178,4145.153275,34493.596897,-78601.398095
4791.751722,-2072.576638,7550.100608,-76303.111601
4791.754265,2812.782580,-888.247130,-75383.797003
4791.756809,4737.318029,23834.631332,-77528.864398
4791.759353,6957.935855,-10955.047942,-81359.341888
4791.761897,-740.205942,-38194.626607,-77528.864398
4791.764440,-4589.276840,25611.125593,-78448.178995
4791.766984,7105.977043,-9178.553681,-79520.712692
4791.769528,-4145.153275,193341.792050,-72625.853210
4791.772072,-6513.812290,-48853.592172,-74924.139704
4791.774615,-7698.141797,2368.659014,-79827.150892
4791.777159,7994.224174,-20725.766376,-83197.971083
4791.779703,148.041188,-162845.307240,-81665.780087
4791.782247,14508.036463,137826.346400,-79214.274493
4791.784790,7254.018232,36418.132346,-74617.701505
4791.787334,1628.453072,13027.624579,-75383.797003
4791.789892,16284.530724,113547.591503,-71246.881314
4791.792449,7105.977043,9622.677246,-71706.538613
4791.795007,-21762.054695,-55811.528027,-81818.999186
4791.797564,8734.430116,17616.901420,-87794.544071
4791.800122,1480.411884,15100.201217,-76915.987999
4791.802680,-9474.636058,10658.965565,-73391.948708
4791.805237,22058.137072,9474.636058,-79214.274493
4791.807795,6957.935855,2072.576638,-80899.684589
4791.810352,-5181.441594,-5033.400406,-80133.589091
4791.812910,-1480.411884,6661.853478,-75383.797003
4791.815468,3552.988522,-8882.471304,-81052.903688
4791.818025,-9178.553681,19393.395680,-76762.768900
4791.820583,11695.253884,-1480.411884,-76915.987999
4791.823140,4589.276840,-22206.178260,-79367.493593
4791.825698,-4145.153275,11547.212695,-78448.178995
4791.828255,6957.935855,-7254.018232,-80746.465489
4791.830813,19837.519246,-23538.548956,-77682.083497
4791.833371,-15840.407159,33605.349767,-79980.369991
4791.835928,19393.395680,-9030.512492,-77375.645298
4791.838486,14952.160028,-16876.695478,-79214.274493
4791.841043,5033.400406,-148.041188,-81052.903688
4791.843601,4145.153275,-15100.201217,-86415.572174
4791.846159,6809.894666,-8586.388927,-81206.122788
4791.848716,-50630.086433,-9474.636058,-68335.718422
4791.851274,-27979.784608,-23982.672521,-67263.184724
4791.853831,7698.141797,-17616.901420,-75230.577904
4791.856389,14804.118840,150853.970980,-83810.847481
4791.858946,-25018.960840,-8142.265362,-79214.274493
4791.861504,41747.615129,-166842.419327,-86109.133975
4791.864062,7846.182985,41007.409187,-73085.510509
4791.866619,-32421.020260,62177.299128,-67109.965625
4791.869177,19541.436869,-38046.585419,-74004.825107
4791.871734,23094.425390,-80978.530055,-87028.448573
4791.874292,51962.457128,-37010.297100,-86722.010374
4791.876850,-27535.661042,133681.193125,-75843.454302
4791.879407,-40415.244433,31828.855506,-69408.252119
4791.881965,5329.482782,-6957.935855,-73698.386908
4791.884522,1924.535449,-14804.118840,-82125.437386
4791.887080,-8734.430116,-51666.374752,-85343.038477
4791.889637,22798.343014,-1036.288319,-81359.341888
4791.892204,10510.924376,26203.290347,-73545.167808
4791.894770,-1776.494261,-6809.894666,-79827.150892
4791.897336,6661.853478,14952.160028,-78601.398095
4791.899902,6365.771101,21021.848753,-72625.853210
4791.902469,-11843.295072,-68691.111418,-77375.645298
4791.905035,7105.977043,-33013.185013,-79367.493593
4791.907601,2220.617826,54775.239708,-76762.768900
4791.910167,6513.812290,-14359.995275,-75230.577904
4791.912733,1924.535449,-16284.530724,-80746.465489
4791.915300,18949.272115,38046.585419,-86415.572174
4791.917866,10066.800811,-13915.871710,-83964.066581
4791.920432,-7550.100608,-10214.842000,-80593.246390
4791.922998,11695.253884,33013.185013,-75077.358804
4791.925565,4145.153275,4293.194464,-75077.358804
4791.928131,-4885.359217,9326.594869,-75843.454302
4791.930697,4885.359217,-11103.089130,-84883.381178
4791.933263,14211.954086,19985.560434,-80746.465489
4791.935829,2664.741391,9326.594869,-79827.150892
4791.938396,-5477.523971,75945.129649,-72319.415011
4791.940962,15248.242405,-55811.528027,-74464.482406
4791.943528,5477.523971,-110142.644170,-83810.847481
4791.946094,21317.931130,96078.731272,-77835.302597
4791.948661,9030.512492,-92969.866315,-77835.302597
4791.951227,15396.283594,74464.717765,-79673.931792
4791.953793,15248.242405,25018.960840,-71093.662214
4791.956359,-14359.995275,-77721.623910,-78141.740796
4791.958925,13767.830521,43524.109390,-83197.971083
4791.961492,-11399.171507,-123466.351126,-84423.723880
4791.964058,-39082.873738,-89120.795417,-86722.010374
4791.966624,11695.253884,52850.704259,-80899.684589
4791.969190,32272.979071,9770.718434,-67722.842023
4791.971757,-1924.535449,-12139.377449,-77835.302597
4791.974323,-7254.018232,66322.452403,-80133.589091
4791.976889,9918.759623,-24278.754898,-74464.482406
4791.979455,-4589.276840,-4145.153275,-85955.914876
4791.982021,-444.123565,23982.672521,-81512.560987
4791.984588,10214.842000,-36862.255912,-75537.016103
4791.987154,4885.359217,-2664.741391,-77069.207099
4791.989720,-5329.482782,52258.539505,-79980.369991
4791.992286,-444.123565,-1480.411884,-79520.712692
4791.994857,8586.388927,-11991.336260,-79827.150892
4791.997429,3997.112087,6217.729913,-77682.083497
4792.000000,-6809.894666,-23686.590144,-77528.864398
4792.002571,22650.301825,-7254.018232,-75230.577904
4792.005142,-5329.482782,22058.137072,-79367.493593
4792.007713,7105.977043,-11843.295072,-80593.246390
4792.010284,7550.100608,-11103.089130,-81052.903688
4792.012855,4441.235652,-6365.771101,-77835.302597
4792.015426,1184.329507,-14952.160028,-78294.959896
4792.017997,1036.288319,23094.425390,-75843.454302
4792.020569,5625.565159,29016.072926,-77375.645298
4792.023140,-21465.972318,60252.763679,-77069.207099
4792.025711,17468.860231,-28719.990550,-74924.139704
4792.028282,25167.002028,-259220.120888,-91012.145162
4792.030853,-19541.436869,108810.273474,-82585.094684
4792.033424,5033.400406,127463.463212,-64352.021832
4792.035995,21169.889941,-95042.442953,-75690.235202
4792.038566,25759.166782,-35381.844028,-81818.999186
4792.041137,-27831.743419,215103.846745,-72779.072310
4792.043709,-148.041188,-146856.858893,-76303.111601
4792.046280,33309.267390,-197931.068891,-89173.515967
4792.048851,-13915.871710,79202.035794,-86262.353075
4792.051422,-45152.562462,64397.916954,-76456.330700
4792.053993,-12583.501014,15100.201217,-75690.235202
4792.056564,41007.409187,13767.830521,-79061.055394
4792.059135,-148.041188,-9770.718434,-79980.369991
4792.061706,2220.617826,-21317.931130,-75843.454302
4792.064277,592.164754,27387.619854,-77222.426198
4792.066849,-13767.830521,11991.336260,-78448.178995
4792.069420,-296.082377,17468.860231,-82431.875585
4792.071991,15988.448347,-57736.063476,-78907.836294
4792.074562,1184.329507,-3256.906145,-78907.836294
4792.077133,10214.842000,43228.027013,-78907.836294
4792.079704,9030.512492,-30940.608376,-76456.330700
4792.082275,-14063.912898,-11103.089130,-74617.701505
4792.084846,148.041188,42487.821071,-81512.560987
4792.087417,20429.683999,-17616.901420,-80746.465489
4792.089989,-9030.512492,-13915.871710,-80133.589091
4792.092560,5033.400406,37602.461854,-75843.454302
4792.095131,8586.388927,-2220.617826,-75383.797003
4792.097706,-3552.988522,10362.883188,-78601.398095
4792.100282,2072.576638,5181.441594,-79520.712692
4792.102857,9918.759623,-7846.182985,-82738.313784
4792.105433,-9030.512492,16876.695478,-79214.274493
4792.108008,-2368.659014,2960.823768,-77222.426198
4792.110583,-1776.494261,124650.680633,-74158.044206
4792.113159,6661.853478,49297.715737,-69867.909418
4792.115734,-888.247130,-159440.359907,-85649.476676
4792.118310,5921.647536,74760.800142,-88407.420469
4792.120885,5773.606348,129091.916285,-69714.690318
4792.123461,-2072.576638,-104813.161387,-71859.757712
4792.126036,5773.606348,-37010.297100,-84117.285680
4792.128612,2664.741391,211254.775847,-73851.606007
4792.131187,-15396.283594,-35381.844028,-75690.235202
4792.133763,-16580.613101,-63213.587447,-85649.476676
4792.136338,20725.766376,24870.919651,-83351.190182
4792.138913,8438.347739,-592.164754,-71553.319513
4792.141489,-8586.388927,10658.965565,-76149.892501
4792.144064,15544.324782,23538.548956,-77222.426198
4792.146640,9030.512492,5625.565159,-79980.369991
4792.149215,-2220.617826,-6513.812290,-80899.684589
4792.151791,8290.306550,-296.082377,-78294.959896
4792.154366,1776.494261,-20429.683999,-74924.139704
4792.156942,-6513.812290,37898.544230,-76762.768900
4792.159517,9770.718434,2960.823768,-80286.808190
4792.162092,-296.082377,-13027.624579,-81665.780087
4792.164668,3997.112087,-8438.347739,-78601.398095
4792.167243,0.000000,-16728.654289,-76609.549800
4792.169819,888.247130,-4441.235652,-74617.701505
4792.172394,1332.370696,7698.141797,-83044.751983
4792.174970,1924.535449,-10658.965565,-79673.931792
4792.177545,11103.089130,444.123565,-77528.864398
4792.180121,-3997.112087,-11843.295072,-80133.589091
4792.182696,7846.182985,3849.070898,-78907.836294
4792.185272,7994.224174,3701.029710,-75843.454302
4792.187847,8586.388927,-13915.871710,-81359.341888
4792.190422,8438.347739,-8290.306550,-81359.341888
4792.192998,-9326.594869,158700.153965,-76149.892501
4792.195573,-26203.290347,4293.194464,-69561.471218
4792.198149,37158.338288,-176020.973008,-73238.729609
4792.200726,43228.027013,-97559.143156,-79827.150892
4792.203303,-17024.736666,21910.095883,-81359.341888
4792.205880,-17024.736666,-30496.484810,-81512.560987
4792.208457,50185.962868,73724.511823,-75383.797003
4792.211034,-19245.354492,128499.751531,-71246.881314
4792.213611,-45744.727216,-103332.749503,-82738.313784
4792.216188,27091.537477,-50334.004056,-77988.521696
4792.218765,5181.441594,42043.697506,-77835.302597
4792.221342,-12731.542202,-30792.567187,-81052.903688
4792.223919,25611.125593,3701.029710,-77069.207099
4792.226496,6957.935855,4441.235652,-74770.920605
4792.229073,-10066.800811,-16876.695478,-80286.808190
4792.231651,7994.224174,2664.741391,-82431.875585
4792.234228,19541.436869,35381.844028,-74617.701505
4792.236805,-13767.830521,-57439.981099,-75537.016103
4792.239382,12287.418637,-740.205942,-81512.560987
4792.241959,-1184.329507,32569.061448,-77528.864398
4792.244536,4293.194464,-36714.214723,-77528.864398
4792.247113,3997.112087,34789.679274,-77988.521696
4792.249690,10510.924376,28275.866984,-76915.987999
4792.252267,2664.741391,-19097.313304,-79980.369991
4792.254844,-6661.853478,14804.118840,-78601.398095
4792.257421,9326.594869,3404.947333,-74924.139704
4792.259998,11547.212695,-19097.313304,-77528.864398
4792.262575,-444.123565,31236.690752,-79214.274493
4792.265152,-296.082377,5477.523971,-79367.493593
4792.267729,5625.565159,-14952.160028,-77222.426198
4792.270306,9918.759623,-2220.617826,-80133.589091
4792.272883,3849.070898,-69135.234983,-83351.190182
4792.275461,296.082377,-109994.602981,-83657.628382
4792.278038,31680.814318,212883.228919,-71859.757712
4792.280615,-4145.153275,47225.139100,-65884.212828
4792.283192,-13175.665768,-139306.758284,-85496.257577
4792.285769,22946.384202,79202.035794,-85802.695776
4792.288346,-4885.359217,-30200.402434,-76456.330700
4792.290923,-8882.471304,-178833.755587,-84883.381178
4792.293500,24278.754898,173356.231616,-85496.257577
4792.296077,12583.501014,89120.795417,-60368.325242
4792.298654,-18061.024985,-54035.033766,-78294.959896
4792.301231,-3256.906145,54479.157331,-87028.448573
4792.303808,5181.441594,-41155.450375,-76303.111601
4792.306385,888.247130,-45744.727216,-79214.274493
4792.308962,12287.418637,58920.392983,-79827.150892
4792.311539,10955.047942,-7105.977043,-75690.235202
4792.314117,1924.535449,1184.329507,-79061.055394
4792.316694,1036.288319,30644.525999,-80440.027290
4792.319271,148.041188,22206.178260,-75690.235202
4792.321848,4145.153275,-34049.473332,-77988.521696
4792.324425,6217.729913,4145.153275,-80593.246390
4792.327002,-8438.347739,-2220.617826,-75843.454302
4792.329579,16284.530724,-13323.706956,-77069.207099
4792.332156,-8586.388927,34345.555709,-81206.122788
4792.334733,9178.553681,-18949.272115,-78601.398095
4792.337310,8734.430116,-888.247130,-78448.178995
4792.339887,-8290.306550,11695.253884,-76456.330700
4792.342464,7254.018232,-35677.926404,-80746.465489
4792.345041,18505.148550,-12879.583391,-77528.864398
4792.347619,-5773.606348,-5329.482782,-81512.560987
4792.350196,148.041188,-2960.823768,-78907.836294
4792.352773,3701.029710,-37158.338288,-83044.751983
4792.355350,31680.814318,-80090.282924,-77988.521696
4792.357927,12139.377449,86604.095214,-75230.577904
4792.360504,-43228.027013,27091.537477,-77375.645298
4792.363081,10807.006753,42339.779882,-78141.740796
4792.365658,-9622.677246,100371.925735,-72472.634111
4792.368235,-13619.789333,-131164.492922,-86722.010374
4792.370812,29608.237680,-18209.066173,-85649.476676
4792.373389,-13323.706956,-22946.384202,-81818.999186
4792.375966,592.164754,-42191.738694,-80286.808190
4792.378543,28868.031738,-6661.853478,-78907.836294
4792.381121,37898.544230,-5477.523971,-73391.948708
4792.383698,-20429.683999,13471.748144,-77988.521696
4792.386275,1924.535449,21169.889941,-79827.150892
4792.388852,4885.359217,2516.700203,-77682.083497
4792.391429,-5181.441594,1924.535449,-80440.027290
4792.394006,4145.153275,-23834.631332,-80286.808190
4792.396583,-4589.276840,16580.613101,-76303.111601
4792.399160,-9770.718434,-7254.018232,-75690.235202
4792.401737,15988.448347,-28423.908173,-80746.465489
4792.404314,4737.318029,59216.475360,-79980.369991
4792.406888,11103.089130,22058.137072,-77375.645298
4792.409464,4885.359217,-48113.386230,-77069.207099
4792.412040,-8882.471304,17468.860231,-81665.780087
4792.414616,-148.041188,11547.212695,-79061.055394
4792.417192,6217.729913,-16432.571912,-75077.358804
4792.419768,5181.441594,48557.509795,-77528.864398
4792.422344,11843.295072,5033.400406,-79061.055394
4792.424919,-740.205942,-9178.553681,-79367.493593
4792.427495,-2220.617826,-2812.782580,-79673.931792
4792.430071,1184.329507,-28127.825796,-75690.235202
4792.432647,11251.130318,-52258.539505,-81359.341888
4792.435223,2368.659014,-91933.577996,-89633.173266
4792.437799,10066.800811,-17024.736666,-85343.038477
4792.440375,18505.148550,153370.671182,-68795.375720
4792.442951,-3849.070898,-23834.631332,-68642.156621
4792.445527,5181.441594,-52406.580694,-83657.628382
4792.448103,4737.318029,77425.541533,-79673.931792
4792.450678,10066.800811,98447.390286,-66190.651027
4792.453254,-15396.283594,-136197.893328,-84423.723880
4792.455830,-2516.700203,-87196.259968,-97447.347346
4792.458406,32865.143825,28423.908173,-78141.740796
4792.460982,17468.860231,25167.002028,-68488.937521
4792.463558,-2072.576638,34049.473332,-76915.987999
4792.466134,2812.782580,36566.173535,-77069.207099
4792.468710,8290.306550,11843.295072,-75843.454302
4792.471286,-9770.718434,-3849.070898,-82125.437386
4792.473862,3404.947333,-23686.590144,-78601.398095
4792.476437,1480.411884,-3849.070898,-79214.274493
4792.479013,-2220.617826,37898.544230,-79061.055394
4792.481589,15396.283594,-10066.800811,-77528.864398
4792.484165,6069.688724,-1924.535449,-78601.398095
4792.486741,-9770.718434,5477.523971,-76456.330700
4792.489317,18357.107362,-22058.137072,-77682.083497
4792.491893,-4293.194464,18801.230927,-77988.521696
4792.494469,2960.823768,20577.725188,-77682.083497
4792.497045,6661.853478,5625.565159,-78448.178995
4792.499620,-9622.677246,25463.084405,-77069.207099
4792.502196,-5921.647536,-21317.931130,-77682.083497
4792.504772,10214.842000,-23094.425390,-77375.645298
4792.507348,-888.247130,-2072.576638,-83351.190182
4792.509923,-1332.370696,19097.313304,-80440.027290
4792.512498,25759.166782,40711.326810,-73545.167808
4792.515074,6809.894666,96966.978402,-66343.870127
4792.517649,-22502.260637,-177205.302515,-85189.819378
4792.520224,35825.967593,-45152.562462,-89173.515967
4792.522799,-10658.965565,128351.710343,-70634.004916
4792.525374,-33753.390955,73724.511823,-68795.375720
4792.527949,-15840.407159,-142563.664429,-90399.268764
4792.530525,68098.946664,60400.804867,-80440.027290
4792.533100,-38194.626607,110438.726546,-65271.336430
4792.535675,-28423.908173,-32272.979071,-78907.836294
4792.538250,49593.798114,-51666.374752,-83351.190182
4792.540825,-592.164754,6957.935855,-73851.606007
4792.543400,-26055.249158,-10955.047942,-80286.808190
4792.545975,13767.830521,38638.750172,-81052.903688
4792.548551,-148.041188,14952.160028,-74924.139704
4792.551126,740.205942,-39526.997303,-78448.178995
4792.553701,4293.194464,-5033.400406,-82891.532884
4792.556276,-4885.359217,19837.519246,-76456.330700
4792.558851,-5773.606348,-32569.061448,-78601.398095
4792.561426,4441.235652,48113.386230,-78907.836294
4792.564002,14656.077652,10066.800811,-76609.549800
4792.566577,-3997.112087,-43968.232955,-82125.437386
4792.569152,2664.741391,33457.308578,-80286.808190
4792.571727,4589.276840,-3108.864956,-74311.263306
4792.574302,-6809.894666,-7402.059420,-80133.589091
4792.576877,7846.182985,47817.303853,-78907.836294
4792.579453,11399.171507,-6809.894666,-75537.016103
4792.582028,-4145.153275,9030.512492,-78907.836294
4792.584603,-2812.782580,2072.576638,-82891.532884
4792.587178,-148.041188,-18949.272115,-78907.836294
4792.589753,-1184.329507,-4737.318029,-77988.521696
4792.592328,3552.988522,197486.945326,-70174.347617
4792.594903,3256.906145,-2812.782580,-69561.471218
4792.597479,-4737.318029,-23390.507767,-82585.094684
4792.600054,296.082377,-49001.633360,-86568.791274
4792.602629,10807.006753,34789.679274,-72779.072310
4792.605204,-7254.018232,70615.646867,-72012.976812
4792.607779,12879.583391,-39823.079680,-80440.027290
4792.610354,2220.617826,-137826.346400,-87334.886772
4792.612928,7402.059420,-84235.436200,-88867.077768
4792.615501,11547.212695,28571.949361,-79520.712692
4792.618074,6365.771101,17616.901420,-73698.386908
4792.620647,-8438.347739,4145.153275,-75230.577904
4792.623220,15840.407159,31976.896694,-79367.493593
4792.625793,7402.059420,-5477.523971,-77835.302597
4792.628367,-6513.812290,-5773.606348,-78754.617194
4792.630940,1036.288319,9622.677246,-78601.398095
4792.633513,7698.141797,-10510.924376,-77835.302597
4792.636086,5921.647536,2220.617826,-79520.712692
4792.638659,3108.864956,4589.276840,-78141.740796
4792.641232,1924.535449,-19837.519246,-77988.521696
4792.643805,10807.006753,5033.400406,-78141.740796
4792.646379,-5033.400406,31532.773129,-77835.302597
4792.648952,5033.400406,-30644.525999,-78294.959896
4792.651525,15692.365970,-148.041188,-79061.055394
4792.654098,-7994.224174,9326.594869,-79980.369991
4792.656671,9326.594869,-35974.008781,-78907.836294
4792.659244,4145.153275,-19097.313304,-78601.398095
4792.661818,-4885.359217,7698.141797,-80899.684589
4792.664391,10066.800811,-15248.242405,-76915.987999
4792.666964,1480.411884,-62917.505070,-81818.999186
4792.669537,-444.123565,65434.205273,-79214.274493
4792.672110,4885.359217,110586.767735,-74158.044206
4792.674683,-4737.318029,42339.779882,-68488.937521
4792.677256,-11103.089130,-51666.374752,-85189.819378
4792.679830,19393.395680,-19097.313304,-82278.656485
4792.682403,14656.077652,90897.289678,-68948.594820
4792.684976,-17912.983796,58476.269418,-70327.566716
4792.687549,-4145.153275,-103480.790692,-88100.982270
4792.690122,29016.072926,-54479.157331,-85802.695776
4792.692695,2516.700203,-1036.288319,-76456.330700
4792.695269,2960.823768,-11103.089130,-78294.959896
4792.697842,10066.800811,21614.013506,-75077.358804
4792.700415,5773.606348,-2812.782580,-77222.426198
4792.702988,296.082377,7254.018232,-77835.302597
4792.705561,20577.725188,-14063.912898,-78907.836294
4792.708134,-9326.594869,-34493.596897,-80440.027290
4792.710707,-2664.741391,23538.548956,-77835.302597
4792.713281,6513.812290,2072.576638,-74770.920605
4792.715853,2664.741391,17172.777854,-77988.521696
4792.718424,592.164754,32717.102636,-80286.808190
4792.720996,8882.471304,-26203.290347,-77375.645298
4792.723568,-1332.370696,5625.565159,-78294.959896
4792.726140,740.205942,17320.819043,-76915.987999
4792.728712,3404.947333,-17616.901420,-77835.302597
4792.731284,7550.100608,-4145.153275,-77682.083497
4792.733856,-2664.741391,40563.285622,-79980.369991
4792.736428,5773.606348,-26499.372724,-80746.465489
4792.739000,6069.688724,-24722.878463,-81512.560987
4792.741571,-7698.141797,-6809.894666,-79061.055394
4792.744143,3108.864956,125538.927763,-70327.566716
4792.746715,17616.901420,68395.029041,-66037.431928
4792.749287,-16580.613101,-179870.043906,-88713.858668
4792.751859,2516.700203,15988.448347,-91778.240660
4792.754431,23686.590144,119469.239039,-65577.774629
4792.757003,9030.512492,-169803.243095,-79827.150892
4792.759575,-29756.278868,54183.074954,-91931.459760
4792.762147,6069.688724,145968.611762,-81359.341888
4792.764719,29164.114115,98447.390286,-57150.724151
4792.767290,-12435.459826,-34937.720462,-81665.780087
4792.769862,-14063.912898,5921.647536,-87794.544071
4792.772434,9030.512492,-18061.024985,-71246.881314
4792.775006,444.123565,-9622.677246,-80286.808190
4792.777578,-1184.329507,35529.885216,-80133.589091
4792.780150,13027.624579,-9326.594869,-74924.139704
4792.782722,4293.194464,13027.624579,-78907.836294
4792.785294,296.082377,21910.095883,-78294.959896
4792.787866,444.123565,-21614.013506,-79673.931792
4792.790438,888.247130,-13915.871710,-78141.740796
4792.793009,-740.205942,-15840.407159,-80133.589091
4792.795581,10510.924376,6661.853478,-77682.083497
4792.798153,-10955.047942,36270.091158,-79827.150892
4792.800725,12287.418637,-27831.743419,-78448.178995
4792.803297,16284.530724,-1628.453072,-75690.235202
4792.805869,-7254.018232,2812.782580,-78754.617194
4792.808441,8438.347739,-43376.068201,-80286.808190
4792.811013,8142.265362,-148.041188,-77528.864398
4792.813585,-9030.512492,43968.232955,-79367.493593
4792.816156,1924.535449,29164.114115,-76762.768900
4792.818726,7105.977043,80830.488866,-78294.959896
4792.821296,3404.947333,121541.815676,-68182.499322
4792.823866,-11399.171507,-44264.315332,-76303.111601
4792.826436,24426.796086,-12879.583391,-81512.560987
4792.829006,-8290.306550,87788.424721,-75690.235202
4792.831576,-33457.308578,-74612.758954,-83964.066581
4792.834146,16284.530724,70023.482113,-80133.589091
4792.836716,35233.802839,23390.507767,-65577.774629
4792.839286,-7994.224174,-137382.222835,-88407.420469
4792.841856,444.123565,-15692.365970,-88100.982270
4792.844426,13471.748144,18061.024985,-74158.044206
4792.846996,-6957.935855,5033.400406,-77528.864398
4792.849566,-888.247130,18357.107362,-78907.836294
4792.852136,9622.677246,53146.786636,-74617.701505
4792.854706,14508.036463,-38342.667796,-76303.111601
4792.857276,-14656.077652,10510.924376,-83964.066581
4792.859846,-4737.318029,1332.370696,-78448.178995
4792.862416,-592.164754,-55515.445650,-78754.617194
4792.864985,5329.482782,71799.976374,-77375.645298
4792.867555,11251.130318,17912.983796,-74464.482406
4792.870125,1184.329507,-45892.768404,-80593.246390
4792.872695,-2812.782580,36566.173535,-81665.780087
4792.875265,9326.594869,-15396.283594,-75843.454302
4792.877835,444.123565,-8142.265362,-79367.493593
4792.880405,1924.535449,29904.320057,-77835.302597
4792.882975,11843.295072,31532.773129,-74464.482406
4792.885545,3108.864956,10214.842000,-77682.083497
4792.888115,-4293.194464,13767.830521,-77682.083497
4792.890685,13471.748144,-47373.180288,-79214.274493
4792.893255,2368.659014,-142859.746806,-87334.886772
4792.895825,-13471.748144,67062.658345,-83197.971083
4792.898395,29164.114115,135309.646198,-65730.993728
4792.900965,-2516.700203,-21465.972318,-73391.948708
4792.903535,-19245.354492,-30052.361245,-86722.010374
4792.906105,5773.606348,66026.370026,-78754.617194
4792.908675,15692.365970,120357.486169,-69714.690318
4792.911245,4441.235652,-26647.413912,-72625.853210
4792.913815,-19541.436869,-61881.216751,-88713.858668
4792.916384,13175.665768,-2368.659014,-81052.903688
4792.918954,15988.448347,22502.260637,-74158.044206
4792.921522,-3404.947333,12287.418637,-77528.864398
4792.924089,4441.235652,25611.125593,-76149.892501
4792.926656,-148.041188,-8586.388927,-76762.768900
4792.929223,-740.205942,-16432.571912,-80746.465489
4792.931790,6069.688724,25907.207970,-79827.150892
4792.934358,-5625.565159,22058.137072,-77069.207099
4792.936925,13323.706956,-22206.178260,-79061.055394
4792.939492,11695.253884,-27979.784608,-80286.808190
4792.942059,2220.617826,-2812.782580,-77988.521696
4792.944627,-1036.288319,3552.988522,-76609.549800
4792.947194,1628.453072,31532.773129,-76149.892501
4792.949761,-2368.659014,-4145.153275,-83504.409282
4792.952328,9918.759623,-14211.954086,-81052.903688
4792.954895,592.164754,7254.018232,-74924.139704
4792.957463,-592.164754,-26351.331535,-74004.825107
4792.960030,16580.613101,-42931.944636,-83351.190182
4792.962597,-12583.501014,54627.198520,-82431.875585
4792.965164,-4589.276840,85123.683330,-73851.606007
4792.967731,4145.153275,160772.730602,-73851.606007
4792.970299,3849.070898,49149.674549,-65577.774629
4792.972866,-4441.235652,-140046.964226,-79827.150892
4792.975433,23390.507767,-6069.688724,-84576.942979
4792.978000,-13027.624579,-7698.141797,-75537.016103
4792.980567,-9030.512492,-113695.632691,-89633.173266
4792.983135,21910.095883,197634.986514,-75230.577904
4792.985702,-15100.201217,100964.090489,-58682.915147
4792.988269,888.247130,-157959.948023,-82431.875585
4792.990836,13915.871710,-5181.441594,-87334.886772
4792.993404,-17764.942608,-6809.894666,-76456.330700
4792.995971,-8142.265362,-19541.436869,-81512.560987
4792.998538,1628.453072,36270.091158,-85955.914876
4793.001105,15544.324782,21762.054695,-72625.853210
4793.003672,-7698.141797,7105.977043,-74924.139704
4793.006240,6069.688724,-1184.329507,-77069.207099
4793.008807,1480.411884,-28423.908173,-79520.712692
4793.011374,-4145.153275,35529.885216,-81512.560987
4793.013941,7550.100608,3997.112087,-79061.055394
4793.016508,-1184.329507,-17320.819043,-77835.302597
4793.019076,4737.318029,41895.656317,-76609.549800
4793.021643,5625.565159,-4737.318029,-75690.235202
4793.024208,3997.112087,-17024.736666,-78754.617194
4793.026774,1480.411884,32865.143825,-79367.493593
4793.029340,14063.912898,25611.125593,-75230.577904
4793.031905,-4885.359217,-7254.018232,-79673.931792
4793.034471,-9326.594869,-5033.400406,-80593.246390
4793.037036,-148.041188,-39971.120868,-79520.712692
4793.039602,-1776.494261,107625.943967,-75230.577904
4793.042167,12879.583391,-444.123565,-73085.510509
4793.044733,-4737.318029,-119469.239039,-83197.971083
4793.047299,2664.741391,87196.259968,-83810.847481
4793.049864,6957.935855,-22058.137072,-72932.291410
4793.052430,4145.153275,83791.312634,-72472.634111
4793.054995,7402.059420,96818.937214,-73085.510509
4793.057561,21021.848753,-84087.395011,-78754.617194
4793.060126,8882.471304,-16432.571912,-83504.409282
4793.062692,-18061.024985,59808.640114,-79214.274493
4793.065258,5773.606348,-6809.894666,-73391.948708
4793.067823,14952.160028,7550.100608,-78141.740796
4793.070389,3404.947333,9178.553681,-79214.274493
4793.072954,4589.276840,-27091.537477,-78294.959896
4793.075520,-2072.576638,32124.937883,-79673.931792
4793.078085,-1480.411884,10807.006753,-77069.207099
4793.080651,9474.636058,-11991.336260,-76609.549800
4793.083217,-2664.741391,3849.070898,-81512.560987
4793.085782,-3552.988522,-16432.571912,-80746.465489
4793.088348,14656.077652,2812.782580,-76609.549800
4793.090913,-9474.636058,28423.908173,-75230.577904
4793.093479,12879.583391,-32717.102636,-81359.341888
4793.096044,7254.018232,-6957.935855,-79520.712692
4793.098610,-7550.100608,4145.153275,-79367.493593
4793.101176,4145.153275,2664.741391,-77682.083497
4793.103741,-1036.288319,5773.606348,-78907.836294
4793.106307,-7105.977043,-19393.395680,-77988.521696
4793.108872,8734.430116,-90601.207301,-80286.808190
4793.111438,0.000000,20873.807564,-80593.246390
4793.114003,-2960.823768,93117.907504,-84423.723880
4793.116569,-3256.906145,112215.220807,-65577.774629
4793.119135,20577.725188,-69431.317360,-74464.482406
4793.121700,7402.059420,-20577.725188,-84423.723880
4793.124266,-3849.070898,32717.102636,-75077.358804
4793.126829,11251.130318,-173800.355182,-84576.942979
4793.129393,15100.201217,-2960.823768,-83964.066581
4793.131957,-6069.688724,107477.902778,-73391.948708
4793.134521,2812.782580,-54183.074954,-78601.398095
4793.137084,13471.748144,8734.430116,-79214.274493
4793.139648,-4293.194464,-10362.883188,-76149.892501
4793.142212,148.041188,-31828.855506,-82891.532884
4793.144775,19245.354492,-29460.196492,-81206.122788
4793.147339,-18061.024985,17320.819043,-78141.740796
4793.149903,-1036.288319,5625.565159,-76456.330700
4793.152466,11103.089130,-25907.207970,-79980.369991
4793.155030,1184.329507,50778.127621,-77528.864398
4793.157594,3997.112087,11991.336260,-75843.454302
4793.160158,3108.864956,-36862.255912,-80286.808190
4793.162721,-4145.153275,32124.937883,-82278.656485
4793.165285,11103.089130,-4589.276840,-75690.235202
4793.167849,-2368.659014,-13915.871710,-78141.740796
4793.170412,-3552.988522,38638.750172,-79980.369991
4793.172976,15100.201217,28423.908173,-75843.454302
4793.175540,1332.370696,17320.819043,-77528.864398
4793.178103,-17912.983796,8142.265362,-81665.780087
4793.180667,-5625.565159,29904.320057,-78754.617194
4793.183231,21614.013506,78313.788664,-70787.224015
4793.185794,11399.171507,-89268.836605,-77682.083497
4793.188358,-15396.283594,-45004.521274,-86722.010374
4793.190922,7550.100608,55515.445650,-79827.150892
4793.193486,19097.313304,56255.651592,-69561.471218
4793.196049,11991.336260,-52702.663070,-76456.330700
4793.198613,3404.947333,-102740.584750,-85802.695776
4793.201177,3849.070898,35974.008781,-81818.999186
4793.203740,-444.123565,38786.791361,-79673.931792
4793.206304,-11547.212695,32717.102636,-75690.235202
4793.208868,12879.583391,11991.336260,-79061.055394
4793.211431,16136.489536,3997.112087,-74924.139704
4793.213995,-5773.606348,-20281.642811,-79980.369991
4793.216559,444.123565,4145.153275,-80593.246390
4793.219123,6809.894666,2812.782580,-78754.617194
4793.221686,-6661.853478,23686.590144,-79061.055394
4793.224250,10955.047942,2960.823768,-77682.083497
4793.226814,7698.141797,-32717.102636,-78907.836294
4793.229328,-296.082377,-6809.894666,-80593.246390
4793.231842,-1036.288319,740.205942,-78141.740796
4793.234356,2516.700203,0.000000,-76915.987999
4793.236870,3997.112087,21021.848753,-77682.083497
4793.239385,-1332.370696,7698.141797,-81052.903688
4793.241899,4737.318029,-8290.306550,-77835.302597
4793.244413,9474.636058,-16284.530724,-76149.892501
4793.246927,3256.906145,-35233.802839,-79673.931792
4793.249442,4885.359217,84235.436200,-74617.701505
4793.251956,6957.935855,-23538.548956,-76609.549800
4793.254470,8586.388927,-228575.594890,-91778.240660
4793.256984,13027.624579,136197.893328,-82431.875585
4793.259498,-7698.141797,108070.067532,-61287.639840
4793.262013,-148.041188,-92229.660373,-70634.004916
4793.264527,18357.107362,-118729.033097,-91012.145162
4793.267041,-6661.853478,233905.077672,-73545.167808
4793.269555,-26647.413912,22354.219448,-68795.375720
4793.272069,15692.365970,-117544.703590,-85802.695776
4793.274584,148.041188,67950.905476,-79673.931792
4793.277098,-4441.235652,-61733.175563,-75537.016103
4793.279612,3108.864956,-8586.388927,-81052.903688
4793.282126,-740.205942,85567.806895,-75690.235202
4793.284641,21317.931130,-52258.539505,-79214.274493
4793.287155,-6217.729913,-13175.665768,-81512.560987
4793.289669,3849.070898,52110.498317,-76456.330700
4793.292183,1924.535449,-13619.789333,-76149.892501
4793.294697,2220.617826,-13767.830521,-80899.684589
4793.297212,2072.576638,51962.457128,-78294.959896
4793.299726,4145.153275,-11991.336260,-76915.987999
4793.302240,2220.617826,5181.441594,-79673.931792
4793.304754,-2220.617826,19393.395680,-79827.150892
4793.307268,4293.194464,-40415.244433,-76303.111601
4793.309783,1776.494261,29756.278868,-79214.274493
4793.312297,6217.729913,26795.455100,-77988.521696
4793.314811,8438.347739,6661.853478,-77069.207099
4793.317325,-2516.700203,11991.336260,-77528.864398
4793.319839,-6365.771101,63361.628635,-76609.549800
4793.322354,32569.061448,-112955.426749,-80593.246390
4793.324868,-25018.960840,3256.906145,-83044.751983
4793.327382,-5625.565159,118284.909532,-77222.426198
4793.329906,14952.160028,-95930.690083,-74311.263306
4793.332429,-10066.800811,95634.607706,-79061.055394
4793.334953,15396.283594,11547.212695,-72012.976812
4793.337476,31236.690752,-154851.083066,-79980.369991
4793.340000,-21317.931130,9326.594869,-89479.954166
4793.342523,-7698.141797,87936.465910,-78448.178995
4793.345047,36714.214723,-6217.729913,-69408.252119
4793.347570,5625.565159,-9918.759623,-77682.083497
4793.350094,1776.494261,21169.889941,-77375.645298
4793.352617,4589.276840,-28571.949361,-77375.645298
4793.355141,1628.453072,2220.617826,-78754.617194
4793.357664,-14804.118840,45744.727216,-79520.712692
4793.360188,16876.695478,-10510.924376,-78141.740796
4793.362711,6069.688724,-14804.118840,-79367.493593
4793.365235,-4737.318029,-14952.160028,-79061.055394
4793.367758,6365.771101,-6661.853478,-78141.740796
4793.370282,-8438.347739,47373.180288,-75996.673402
4793.372805,8586.388927,-10214.842000,-76609.549800
4793.375329,21169.889941,-19689.478057,-79673.931792
4793.377852,6217.729913,-296.082377,-79214.274493
4793.380376,3849.070898,-47817.303853,-80899.684589
4793.382900,-1924.535449,-15988.448347,-80133.589091
4793.385423,-9474.636058,3256.906145,-77069.207099
4793.387947,-6513.812290,-6957.935855,-80593.246390
4793.390470,13767.830521,123318.309937,-70174.347617
4793.392994,-2072.576638,5625.565159,-71859.757712
4793.395517,-4145.153275,-93562.031069,-85955.914876
4793.398041,-2220.617826,21465.972318,-82738.313784
4793.400564,4145.153275,-35825.967593,-75537.016103
4793.403088,7254.018232,-105405.326141,-84576.942979
4793.405611,15100.201217,-51074.209998,-84883.381178
4793.408135,-4737.318029,57588.022288,-77988.521696
4793.410658,2368.659014,-18209.066173,-76149.892501
4793.413182,14211.954086,52554.621882,-75537.016103
4793.415705,740.205942,1776.494261,-76149.892501
4793.418229,-1480.411884,-37750.503042,-78754.617194
4793.420752,8586.388927,14804.118840,-79827.150892
4793.423276,-5033.400406,-49741.839302,-80133.589091
4793.425799,-296.082377,27091.537477,-78448.178995
4793.428323,11103.089130,19541.436869,-76303.111601
4793.430851,5329.482782,-11843.295072,-79367.493593
4793.433381,444.123565,11399.171507,-79673.931792
4793.435911,9178.553681,25315.043216,-76915.987999
4793.438441,3552.988522,-13027.624579,-75383.797003
4793.440971,-592.164754,16728.654289,-81359.341888
4793.443502,740.205942,7254.018232,-80440.027290
4793.446032,3256.906145,-2960.823768,-78448.178995
4793.448562,14063.912898,18505.148550,-77069.207099
4793.451092,-1332.370696,25759.166782,-77835.302597
4793.453622,-8586.388927,37898.544230,-77222.426198
4793.456152,27239.578666,-38490.708984,-77988.521696
4793.458682,18505.148550,-97855.225532,-82278.656485
4793.461212,-16136.489536,44412.356520,-83044.751983
4793.463743,-14508.036463,51222.251186,-80593.246390
4793.466273,10658.965565,29312.155303,-71706.538613
4793.468803,24870.919651,30644.525999,-72472.634111
4793.471333,15988.448347,-67802.864287,-80440.027290
4793.473863,-444.123565,-81866.777185,-87641.324971
4793.476393,-1628.453072,52110.498317,-79520.712692
4793.478923,13323.706956,29756.278868,-74464.482406
4793.481453,-2516.700203,12139.377449,-79061.055394
4793.483984,12435.459826,18061.024985,-76456.330700
4793.486514,1332.370696,-19985.560434,-77069.207099
4793.489044,-8142.265362,6069.688724,-80440.027290
4793.491574,-13175.665768,36122.049970,-81206.122788
4793.494104,10510.924376,-12435.459826,-77835.302597
4793.496634,4145.153275,-14063.912898,-78448.178995
4793.499164,0.000000,2220.617826,-79980.369991
4793.501695,9622.677246,-3552.988522,-77375.645298
4793.504225,-7550.100608,14656.077652,-75843.454302
4793.506755,9178.553681,-26647.413912,-81512.560987
4793.509285,4441.235652,-8438.347739,-79980.369991
4793.511815,-4737.318029,21762.054695,-78601.398095
4793.514345,2516.700203,9474.636058,-76609.549800
4793.516875,7105.977043,-7105.977043,-74617.701505
4793.519405,9770.718434,-38786.791361,-81206.122788
4793.521936,23094.425390,46781.015534,-73238.729609
4793.524466,13915.871710,-195118.286311,-84117.285680
4793.526996,-13471.748144,-18209.066173,-90705.706963
4793.529526,-2072.576638,150853.970980,-72779.072310
4793.532062,28571.949361,-97559.143156,-72779.072310
4793.534599,-9326.594869,10362.883188,-83964.066581
4793.537135,-14359.995275,179870.043906,-71706.538613
4793.539671,2812.782580,-59660.598925,-73698.386908
4793.542208,15100.201217,-90157.083736,-85036.600278
4793.544744,-7846.182985,16284.530724,-81972.218286
4793.547280,-9918.759623,-15544.324782,-79520.712692
4793.549817,10955.047942,-5033.400406,-80593.246390
4793.552353,5033.400406,34789.679274,-76456.330700
4793.554889,-592.164754,30644.525999,-74464.482406
4793.557426,8438.347739,-42931.944636,-77375.645298
4793.559962,888.247130,-4737.318029,-80133.589091
4793.562498,-1184.329507,22946.384202,-79827.150892
4793.565035,5477.523971,-27387.619854,-80899.684589
4793.567571,-4145.153275,18653.189738,-78601.398095
4793.570107,10510.924376,32865.143825,-75077.358804
4793.572644,10066.800811,-14063.912898,-75077.358804
4793.575180,-4145.153275,11251.130318,-83044.751983
4793.577716,-888.247130,11991.336260,-79520.712692
4793.580253,6217.729913,14508.036463,-75383.797003
4793.582789,1480.411884,8438.347739,-80440.027290
4793.585325,-4737.318029,54035.033766,-75996.673402
4793.587862,-10807.006753,59660.598925,-73085.510509
4793.590398,21910.095883,-124354.598256,-83044.751983
4793.592934,-9918.759623,-40711.326810,-87488.105872
4793.595471,-2220.617826,106737.696836,-78448.178995
4793.598007,5181.441594,16728.654289,-70634.004916
4793.600543,11103.089130,31976.896694,-73698.386908
4793.603080,10066.800811,-93710.072257,-81972.218286
4793.605616,-7550.100608,-70171.523302,-85036.600278
4793.608152,-5773.606348,5625.565159,-85955.914876
4793.610689,5773.606348,53738.951389,-77682.083497
4793.613225,-1036.288319,4145.153275,-77835.302597
4793.615761,10955.047942,25907.207970,-77375.645298
4793.618298,12435.459826,-3108.864956,-72319.415011
4793.620834,-14508.036463,-11399.171507,-79827.150892
4793.623370,-2368.659014,-2368.659014,-83657.628382
4793.625907,148.041188,13027.624579,-78754.617194
4793.628443,10362.883188,-5773.606348,-78294.959896
4793.630979,8586.388927,-10955.047942,-79061.055394
4793.633520,1036.288319,7698.141797,-76915.987999
4793.636060,-2072.576638,-20577.725188,-77375.645298
4793.638601,13471.748144,-25018.960840,-78448.178995
4793.641141,3256.906145,16876.695478,-81818.999186
4793.643682,-7550.100608,17912.983796,-79061.055394
4793.646223,10362.883188,9030.512492,-72779.072310
4793.648763,7698.141797,-45892.768404,-79367.493593
4793.651304,-16284.530724,-19689.478057,-85802.695776
4793.653844,-11103.089130,64101.834577,-77375.645298
4793.656385,2516.700203,76093.170838,-71706.538613
4793.658925,8438.347739,-72540.182316,-78448.178995
4793.661466,17024.736666,10362.883188,-78294.959896
4793.664006,-21317.931130,79942.241736,-72472.634111
4793.666547,-5921.647536,-10066.800811,-74158.044206
4793.669087,-6513.812290,-127759.545589,-88407.420469
4793.671628,-740.205942,30348.443622,-86109.133975
4793.674168,6957.935855,72836.264693,-70021.128517
4793.676709,9622.677246,-42931.944636,-72319.415011
4793.679249,9770.718434,-8734.430116,-81665.780087
4793.681790,-888.247130,3701.029710,-81972.218286
4793.684330,3552.988522,-37750.503042,-79520.712692
4793.686871,-9474.636058,45596.686027,-77528.864398
4793.689411,5921.647536,-24278.754898,-76303.111601
4793.691952,6661.853478,-16432.571912,-78448.178995
4793.694492,1184.329507,63509.669824,-77069.207099
4793.697033,2664.741391,8438.347739,-78907.836294
4793.699573,2220.617826,-44116.274143,-81665.780087
4793.702114,-444.123565,51370.292375,-79673.931792
4793.704654,888.247130,-11695.253884,-75077.358804
4793.707195,4885.359217,-19245.354492,-75996.673402
4793.709735,14804.118840,48853.592172,-79061.055394
4793.712276,-888.247130,11991.336260,-77988.521696
4793.714819,12583.501014,-12287.418637,-78448.178995
4793.717362,10807.006753,22502.260637,-75996.673402
4793.719905,18653.189738,-88972.754228,-78907.836294
4793.722448,14359.995275,-89861.001359,-85343.038477
4793.724991,-7105.977043,-34345.555709,-87028.448573
4793.727534,1480.411884,77129.459156,-77528.864398
4793.730077,13323.706956,29016.072926,-71400.100414
4793.732621,24278.754898,-123466.351126,-82278.656485
4793.735164,-26795.455100,-37602.461854,-86415.572174
4793.737707,444.123565,116064.291706,-75843.454302
4793.740250,-1924.535449,72688.223504,-69101.813920
4793.742793,7402.059420,-16580.613101,-81206.122788
4793.745336,2516.700203,-16728.654289,-83810.847481
4793.747879,-9178.553681,-11251.130318,-78141.740796
4793.750422,6661.853478,-296.082377,-79827.150892
4793.752965,15544.324782,14359.995275,-77835.302597
4793.755509,-5033.400406,37158.338288,-78448.178995
4793.758052,12879.583391,-14508.036463,-77528.864398
4793.760595,12435.459826,-10807.006753,-79214.274493
4793.763138,1184.329507,-5921.647536,-79673.931792
4793.765681,-3404.947333,-14952.160028,-77222.426198
4793.768224,-9030.512492,41303.491564,-73238.729609
4793.770767,12435.459826,-6809.894666,-78601.398095
4793.773310,12435.459826,-38194.626607,-85802.695776
4793.775853,-1036.288319,592.164754,-79980.369991
4793.778396,-5033.400406,-11399.171507,-75383.797003
4793.780940,15692.365970,-14508.036463,-73238.729609
4793.783483,14359.995275,-22058.137072,-78448.178995
4793.786026,28571.949361,-152630.465240,-86875.229473
4793.788569,-6217.729913,52850.704259,-82125.437386
4793.791112,-740.205942,113843.673880,-72012.976812
4793.793655,22502.260637,-53294.827824,-72779.072310
4793.796198,8142.265362,25167.002028,-74770.920605
4793.798741,3701.029710,-80090.282924,-78907.836294
4793.801284,148.041188,-123170.268749,-88560.639569
4793.803828,-740.205942,90009.042547,-84423.723880
4793.806371,13619.789333,7698.141797,-70940.443115
4793.808914,13915.871710,-31384.731941,-75690.235202
4793.811457,1776.494261,51666.374752,-77835.302597
4793.814000,10807.006753,-4589.276840,-77375.645298
4793.816546,-15692.365970,-14359.995275,-79520.712692
4793.819092,-1924.535449,10807.006753,-79673.931792
4793.821638,3256.906145,-36418.132346,-79827.150892
4793.824183,5181.441594,22946.384202,-80746.465489
4793.826729,10807.006753,15248.242405,-76149.892501
4793.829275,-888.247130,-15988.448347,-76609.549800
4793.831821,-2368.659014,44412.356520,-78754.617194
4793.834367,6661.853478,-4293.194464,-79980.369991
4793.836913,-1776.494261,-22502.260637,-78754.617194
4793.839459,9770.718434,37010.297100,-76762.768900
4793.842005,10510.924376,39526.997303,-76762.768900
4793.844550,5033.400406,-4441.235652,-76303.111601
4793.847096,11843.295072,-26499.372724,-78141.740796
4793.849642,19393.395680,-160180.565849,-85649.476676
4793.852188,-7698.141797,36122.049970,-85189.819378
4793.854734,12287.418637,139750.881850,-73545.167808
4793.857280,15988.448347,-26499.372724,-69867.909418
4793.859826,-1480.411884,-104369.037822,-84270.504780
4793.862372,-29608.237680,179722.002718,-80133.589091
4793.864917,27979.784608,81422.653620,-65577.774629
4793.867463,7254.018232,-141823.458487,-77375.645298
4793.870009,-2812.782580,-20429.683999,-91625.021561
4793.872555,-23834.631332,28571.949361,-87334.886772
4793.875101,-1332.370696,-8586.388927,-75537.016103
4793.877647,7550.100608,6957.935855,-76915.987999
4793.880193,9770.718434,41303.491564,-75690.235202
4793.882739,7846.182985,-32865.143825,-78907.836294
4793.885284,11991.336260,-1776.494261,-80440.027290
4793.887830,-3404.947333,13619.789333,-79673.931792
4793.890376,-1480.411884,-31236.690752,-80133.589091
4793.892922,2812.782580,12287.418637,-77375.645298
4793.895468,-592.164754,-11695.253884,-75537.016103
4793.898014,5477.523971,-11991.336260,-79980.369991
4793.900560,9178.553681,24130.713709,-82738.313784
4793.903106,-9770.718434,18505.148550,-78754.617194
4793.905651,10066.800811,5477.523971,-72932.291410
4793.908197,9770.718434,-28571.949361,-77375.645298
4793.910743,-14952.160028,55515.445650,-80440.027290
4793.913289,8882.471304,-33901.432144,-77682.083497
4793.915835,15692.365970,-153518.712371,-84883.381178
4793.918382,-6513.812290,121245.733300,-80440.027290
4793.920930,5181.441594,39823.079680,-69408.252119
4793.923477,9770.718434,-2960.823768,-74311.263306
4793.926025,8734.430116,23538.548956,-74004.825107
4793.928572,-2812.782580,-158404.071588,-86109.133975
4793.931120,-9178.553681,-80682.447678,-85496.257577
4793.933667,10362.883188,43672.150578,-78601.398095
4793.936215,4589.276840,-64545.958142,-78141.740796
4793.938763,-5477.523971,22502.260637,-81512.560987
4793.941310,7550.100608,47225.139100,-74004.825107
4793.943858,-1036.288319,-9178.553681,-75537.016103
4793.946405,444.123565,-41155.450375,-81359.341888
4793.948953,2664.741391,-7105.977043,-78601.398095
4793.951500,2664.741391,34197.514520,-77682.083497
4793.954048,11843.295072,-17024.736666,-79827.150892
4793.956595,-6661.853478,21465.972318,-79673.931792
4793.959143,740.205942,39675.038491,-75077.358804
4793.961690,10066.800811,-11695.253884,-77375.645298
4793.964238,-592.164754,1184.329507,-79367.493593
4793.966785,10807.006753,34641.638086,-78294.959896
4793.969333,-2368.659014,-7105.977043,-78141.740796
4793.971880,7402.059420,-39823.079680,-82431.875585
4793.974428,-7105.977043,-21169.889941,-83657.628382
4793.976975,-15692.365970,144192.117502,-72932.291410
4793.979523,20281.642811,-14359.995275,-71093.662214
4793.982070,-17024.736666,-17616.901420,-83504.409282
4793.984618,-14211.954086,-18061.024985,-87028.448573
4793.987165,-9178.553681,56403.692780,-76915.987999
4793.989713,30792.567187,-52406.580694,-74464.482406
4793.992260,2516.700203,-123022.227560,-86722.010374
4793.994808,-14211.954086,97559.143156,-84730.162079
4793.997355,24278.754898,53590.910201,-70480.785816
4793.999903,15840.407159,-17024.736666,-71706.538613
4794.002450,-13619.789333,33901.432144,-83197.971083
4794.004998,5181.441594,-44412.356520,-79980.369991
4794.007545,-3256.906145,-9178.553681,-77988.521696
4794.010093,-2960.823768,50482.045244,-76762.768900
4794.012640,17024.736666,-10658.965565,-78907.836294
4794.015188,-888.247130,-5477.523971,-80746.465489
4794.017735,148.041188,-7698.141797,-77682.083497
4794.020244,11991.336260,-7105.977043,-74311.263306
4794.022752,-5921.647536,17764.942608,-75690.235202
4794.025261,11103.089130,-16432.571912,-82891.532884
4794.027769,12879.583391,0.000000,-79520.712692
4794.030277,-11399.171507,18209.066173,-80440.027290
4794.032786,2812.782580,17024.736666,-76456.330700
4794.035294,9474.636058,-16136.489536,-73545.167808
4794.037802,-12139.377449,56255.651592,-74158.044206
4794.040311,16580.613101,-105405.326141,-83504.409282
4794.042819,14211.954086,-76685.335591,-87947.763170
4794.045327,-3552.988522,99335.637416,-77988.521696
4794.047836,-3404.947333,72096.058751,-73085.510509
4794.050344,23390.507767,-10807.006753,-68948.594820
4794.052853,13175.665768,-129832.122227,-83351.190182
4794.055361,740.205942,-11695.253884,-85802.695776
4794.057869,13027.624579,12583.501014,-78141.740796
4794.060378,-3256.906145,9178.553681,-79367.493593
4794.062886,8142.265362,51370.292375,-77988.521696
4794.065394,8586.388927,-14952.160028,-73545.167808
4794.067903,12583.501014,-40415.244433,-80133.589091
4794.070411,-9474.636058,-22798.343014,-83197.971083
4794.072919,1184.329507,31384.731941,-76915.987999
4794.075428,5329.482782,26647.413912,-77222.426198
4794.077936,9770.718434,-9474.636058,-79673.931792
4794.080444,1036.288319,33457.308578,-78754.617194
4794.082953,8438.347739,3552.988522,-73851.606007
4794.085461,-3108.864956,-25315.043216,-79827.150892
4794.087970,-444.123565,22650.301825,-79214.274493
4794.090478,9030.512492,3552.988522,-77528.864398
4794.092986,-5033.400406,16432.571912,-81512.560987
4794.095495,6217.729913,41599.573940,-76149.892501
4794.098003,14359.995275,-3552.988522,-75077.358804
4794.100511,19541.436869,-168322.831211,-83657.628382
4794.103020,2072.576638,-37158.338288,-85802.695776
4794.105528,888.247130,16876.695478,-85036.600278
4794.108036,3849.070898,118877.074285,-72472.634111
4794.110545,12583.501014,34345.555709,-68948.594820
4794.113053,23242.466579,58476.269418,-70787.224015
4794.115562,-6069.688724,-94894.401764,-79367.493593
4794.118070,-19837.519246,-47521.221476,-90246.049664
4794.120589,10066.800811,66618.534780,-80746.465489
4794.123107,7105.977043,4441.235652,-71706.538613
4794.125626,888.247130,20429.683999,-78754.617194
4794.128144,12731.542202,16284.530724,-75230.577904
4794.130663,4885.359217,-34493.596897,-76149.892501
4794.133182,-5921.647536,6661.853478,-79214.274493
4794.135700,9326.594869,6513.812290,-80133.589091
4794.138219,-3849.070898,-2368.659014,-79214.274493
4794.140738,-4441.235652,-6069.688724,-79520.712692
4794.143256,13619.789333,-3404.947333,-77222.426198
4794.145775,-592.164754,12287.418637,-72472.634111
4794.148294,10658.965565,-26351.331535,-80899.684589
4794.150812,1184.329507,11103.089130,-82585.094684
4794.153331,-5921.647536,18357.107362,-80286.808190
4794.155849,11695.253884,-740.205942,-73238.729609
4794.158368,14656.077652,-47373.180288,-75843.454302
4794.160887,148.041188,-80386.365301,-84270.504780
4794.163405,25315.043216,-184459.320746,-87334.886772
4794.165924,-7254.018232,-29904.320057,-85802.695776
4794.168443,3552.988522,140787.170168,-72779.072310
4794.170961,18505.148550,-86011.930460,-72779.072310
4794.173480,-1480.411884,-96374.813648,-87947.763170
4794.175999,-1036.288319,180314.167471,-73545.167808
4794.178517,1332.370696,14804.118840,-65884.212828
4794.181036,-2220.617826,-43672.150578,-85802.695776
4794.183555,2368.659014,-1480.411884,-81972.218286
4794.186073,-3108.864956,-62621.422693,-78601.398095
4794.188592,-2960.823768,8882.471304,-81206.122788
4794.191110,-16136.489536,44412.356520,-82585.094684
4794.193629,10066.800811,8734.430116,-72472.634111
4794.196148,4441.235652,-25611.125593,-77528.864398
4794.198666,10214.842000,61881.216751,-80440.027290
4794.201185,3108.864956,-18209.066173,-79367.493593
4794.203704,-9326.594869,-21021.848753,-80440.027290
4794.206222,-5773.606348,52258.539505,-75843.454302
4794.208741,13915.871710,-19985.560434,-74770.920605
4794.211260,-444.123565,1184.329507,-82431.875585
4794.213778,3404.947333,30792.567187,-80593.246390
4794.216297,-2664.741391,11695.253884,-75996.673402
4794.218816,-1332.370696,18801.230927,-78294.959896
4794.221342,-15692.365970,149669.641472,-72779.072310
4794.223869,10510.924376,25759.166782,-65271.336430
4794.226396,7846.182985,-205037.045934,-87794.544071
4794.228923,14063.912898,29016.072926,-88867.077768
4794.231449,-14656.077652,140343.046603,-71553.319513
4794.233976,24574.837274,97855.225532,-62819.830836
4794.236503,13767.830521,-121837.898053,-75996.673402
4794.239030,-35825.967593,-72096.058751,-93616.869856
4794.241557,11695.253884,64545.958142,-81665.780087
4794.244083,1924.535449,11843.295072,-73851.606007
4794.246610,-1332.370696,26943.496289,-76609.549800
4794.249137,10807.006753,17912.983796,-78141.740796
4794.251664,21021.848753,-19837.519246,-74311.263306
4794.254191,-7402.059420,6069.688724,-76915.987999
4794.256717,2220.617826,23834.631332,-79367.493593
4794.259244,444.123565,-2368.659014,-81359.341888
4794.261771,592.164754,-29460.196492,-81818.999186
4794.264298,13323.706956,1480.411884,-75690.235202
4794.266825,-2072.576638,-11399.171507,-75077.358804
4794.269351,-1184.329507,-7698.141797,-80440.027290
4794.271878,9770.718434,25315.043216,-79214.274493
4794.274405,-2812.782580,4145.153275,-78448.178995
4794.276932,4145.153275,-46632.974346,-80746.465489
4794.279459,17468.860231,-79498.118171,-79214.274493
4794.281985,-444.123565,-74020.594200,-85036.600278
4794.284512,-6957.935855,182238.702920,-75077.358804
4794.287039,24278.754898,-12731.542202,-73698.386908
4794.289566,-19245.354492,-193341.792050,-94229.746254
4794.292093,-22354.219448,202372.304543,-81665.780087
4794.294619,14804.118840,-22650.301825,-64045.583633
4794.297146,740.205942,-229463.842020,-90705.706963
4794.299673,2368.659014,137974.387589,-84883.381178
4794.302200,13619.789333,43376.068201,-66956.746525
4794.304727,5921.647536,-61141.010809,-79980.369991
4794.307253,-148.041188,45448.644839,-81052.903688
4794.309780,6069.688724,14359.995275,-75383.797003
4794.312307,-12583.501014,-50482.045244,-79061.055394
4794.314834,-592.164754,27091.537477,-79214.274493
4794.317361,5625.565159,-26351.331535,-76762.768900
4794.319887,2516.700203,29164.114115,-80899.684589
4794.322420,8586.388927,19245.354492,-80746.465489
4794.324953,-296.082377,-29164.114115,-79061.055394
4794.327486,-2812.782580,45596.686027,-75843.454302
4794.330019,6809.894666,-2072.576638,-78141.740796
4794.332552,-296.082377,-10510.924376,-77835.302597
4794.335085,1480.411884,34049.473332,-81512.560987
4794.337618,2664.741391,11695.253884,-77988.521696
4794.340151,2368.659014,-14952.160028,-79827.150892
4794.342684,-18357.107362,152926.547617,-71400.100414
4794.345216,-1480.411884,-51814.415940,-73545.167808
4794.347749,-1480.411884,24722.878463,-78907.836294
4794.350282,22650.301825,-174244.478747,-89786.392366
4794.352815,-12879.583391,-4293.194464,-87947.763170
4794.355348,6365.771101,101260.172866,-73085.510509
4794.357881,9622.677246,29460.196492,-67569.622924
4794.360414,38194.626607,-10214.842000,-76149.892501
4794.362947,-12879.583391,10658.965565,-81665.780087
4794.365480,-5477.523971,5329.482782,-76762.768900
4794.368013,-14952.160028,-10510.924376,-83044.751983
4794.370546,2516.700203,7550.100608,-80593.246390
4794.373078,-7698.141797,6365.771101,-77682.083497
4794.375611,10955.047942,5181.441594,-74617.701505
4794.378144,13027.624579,-296.082377,-79214.274493
4794.380677,8586.388927,-5921.647536,-81972.218286
4794.383210,-7254.018232,-16136.489536,-78448.178995
4794.385743,2368.659014,-2664.741391,-75843.454302
4794.388276,-2812.782580,45152.562462,-73698.386908
4794.390809,12583.501014,-37602.461854,-81359.341888
4794.393342,7402.059420,-2220.617826,-82125.437386
4794.395875,-888.247130,16136.489536,-75690.235202
4794.398407,2220.617826,24574.837274,-76303.111601
4794.400940,14508.036463,-20429.683999,-77528.864398
4794.403473,4441.235652,-145524.488197,-84883.381178
4794.406006,-296.082377,16876.695478,-83044.751983
4794.408539,19097.313304,101852.337619,-74311.263306
4794.411072,444.123565,-18357.107362,-75996.673402
4794.413605,888.247130,-66914.617157,-82431.875585
4794.416138,9326.594869,-111475.014865,-84883.381178
4794.418671,-2812.782580,52110.498317,-77375.645298
4794.421204,8438.347739,68987.193794,-73238.729609
4794.423737,10807.006753,-4737.318029,-74924.139704
4794.426275,3552.988522,-888.247130,-79673.931792
4794.428813,9030.512492,5181.441594,-78294.959896
4794.431351,-20133.601622,2960.823768,-77528.864398
4794.433890,3701.029710,-38342.667796,-77988.521696
4794.436428,4589.276840,740.205942,-79061.055394
4794.438966,2664.741391,60252.763679,-80593.246390
4794.441504,15692.365970,-38786.791361,-81052.903688
4794.444042,-9178.553681,1036.288319,-80286.808190
4794.446580,2368.659014,47077.097911,-75383.797003
4794.449118,4737.318029,-21614.013506,-73391.948708
4794.451657,1924.535449,-444.123565,-78294.959896
4794.454195,17172.777854,35381.844028,-82738.313784
4794.456733,-5625.565159,14804.118840,-79214.274493
4794.459271,-7550.100608,-3849.070898,-79980.369991
4794.461809,4293.194464,-78461.829852,-82738.313784
4794.464347,15396.283594,-78017.706287,-82278.656485
4794.466885,9326.594869,112363.261996,-73851.606007
4794.469424,-1776.494261,54627.198520,-71859.757712
4794.471962,11251.130318,-740.205942,-80593.246390
4794.474500,15544.324782,-10362.883188,-79061.055394
4794.477038,-36270.091158,-57143.898722,-82431.875585
4794.479576,6513.812290,-6809.894666,-85955.914876
4794.482114,8438.347739,4737.318029,-83810.847481
4794.484652,2368.659014,0.000000,-78294.959896
4794.487191,6661.853478,21910.095883,-74924.139704
4794.489729,11695.253884,15100.201217,-76915.987999
4794.492267,-2812.782580,-17764.942608,-79520.712692
4794.494805,-6069.688724,35825.967593,-77988.521696
4794.497343,3108.864956,-14804.118840,-77988.521696
4794.499881,-1036.288319,-34493.596897,-82278.656485
4794.502419,3108.864956,11695.253884,-77988.521696
4794.504958,5329.482782,-11399.171507,-75230.577904
4794.507496,-11991.336260,31088.649564,-78141.740796
4794.510034,17912.983796,37158.338288,-82431.875585
4794.512572,3256.906145,-24870.919651,-78294.959896
4794.515110,10807.006753,-24130.713709,-75077.358804
4794.517648,-2516.700203,46929.056723,-77375.645298
4794.520187,18061.024985,-71059.770432,-80440.027290
4794.522725,10658.965565,-172467.984486,-90705.706963
4794.525267,-1332.370696,121689.856865,-77069.207099
4794.527810,16284.530724,93562.031069,-64811.679131
4794.530352,-4293.194464,-150557.888603,-86109.133975
4794.532894,-27239.578666,33753.390955,-89939.611465
4794.535437,18505.148550,156627.577327,-65884.212828
4794.537979,-296.082377,-100668.008112,-72932.291410
4794.540522,-10658.965565,-58624.310606,-84576.942979
4794.543064,-8290.306550,71503.893997,-80440.027290
4794.545607,7254.018232,-19393.395680,-72932.291410
4794.548149,14359.995275,-45152.562462,-84117.285680
4794.550692,1332.370696,-21465.972318,-81206.122788
4794.553234,10510.924376,13027.624579,-74311.263306
4794.555776,444.123565,20133.601622,-75690.235202
4794.558319,9178.553681,26647.413912,-80746.465489
4794.560861,740.205942,16728.654289,-79520.712692
4794.563404,-740.205942,-25167.002028,-78448.178995
4794.565946,-9770.718434,-2368.659014,-79520.712692
4794.568489,-3108.864956,9030.512492,-82431.875585
4794.571031,4885.359217,9326.594869,-79520.712692
4794.573573,19837.519246,26795.455100,-75077.358804
4794.576116,4145.153275,26499.372724,-76915.987999
4794.578658,5773.606348,46040.809592,-74924.139704
4794.581201,7254.018232,-32272.979071,-75996.673402
4794.583743,-1332.370696,-144488.199878,-87794.544071
4794.586286,6809.894666,57736.063476,-78601.398095
4794.588828,19837.519246,147449.023646,-69714.690318
4794.591371,-1332.370696,36862.255912,-75230.577904
4794.593913,-22798.343014,-107625.943967,-83044.751983
4794.596455,11399.171507,-46336.891969,-87641.324971
4794.598998,9770.718434,-11695.253884,-85955.914876
4794.601540,-2664.741391,-5181.441594,-78754.617194
4794.604083,-9622.677246,20873.807564,-79673.931792
4794.606625,14063.912898,22354.219448,-74311.263306
4794.609168,5921.647536,-14211.954086,-79061.055394
4794.611710,-5181.441594,26499.372724,-79673.931792
4794.614253,8882.471304,-1924.535449,-77682.083497
4794.616795,-1628.453072,-20873.807564,-79214.274493
4794.619337,-2960.823768,-8586.388927,-80746.465489
4794.621880,9326.594869,1924.535449,-75537.016103
4794.624422,0.000000,34197.514520,-74617.701505
4794.626967,9918.759623,-1628.453072,-81359.341888
4794.629513,9918.759623,-27979.784608,-80593.246390
4794.632058,-8734.430116,7698.141797,-75383.797003
4794.634603,9622.677246,-21910.095883,-74770.920605
4794.637148,8586.388927,-102592.543561,-86109.133975
4794.639693,-12287.418637,196746.739384,-78601.398095
4794.642239,16580.613101,1480.411884,-70480.785816
4794.644784,-13767.830521,-184163.238370,-88407.420469
4794.647329,-13323.706956,192749.627297,-80593.246390
4794.649874,7402.059420,-145820.570574,-71706.538613
4794.652419,-18061.024985,-119617.280227,-90552.487864
4794.654964,30792.567187,195858.492253,-77069.207099
4794.657510,27387.619854,13767.830521,-68029.280222
4794.660055,-592.164754,-96522.854837,-75996.673402
4794.662600,1480.411884,95042.442953,-81665.780087
4794.665145,-2220.617826,26499.372724,-72166.195912
4794.667690,-5921.647536,-101260.172866,-82738.313784
4794.670235,-1184.329507,44116.274143,-84270.504780
4794.672781,15248.242405,1776.494261,-74464.482406
4794.675326,5921.647536,-30200.402434,-78907.836294
4794.677871,1480.411884,66026.370026,-77222.426198
4794.680416,9178.553681,-6069.688724,-75690.235202
4794.682961,-2516.700203,-12139.377449,-79061.055394
4794.685506,7105.977043,28127.825796,-78907.836294
4794.688052,9326.594869,10807.006753,-75996.673402
4794.690597,12287.418637,-3552.988522,-78448.178995
4794.693142,10066.800811,56403.692780,-76149.892501
4794.695687,2072.576638,50482.045244,-70940.443115
4794.698232,-24722.878463,-141231.293734,-88867.077768
4794.700778,-21465.972318,92821.825127,-85955.914876
4794.703323,16876.695478,138122.428777,-69408.252119
4794.705868,11547.212695,-37306.379477,-71553.319513
4794.708413,-17468.860231,-124502.639444,-92237.897959
4794.710958,17172.777854,70023.482113,-80133.589091
4794.713503,1480.411884,47669.262665,-69408.252119
4794.716049,-13767.830521,-9326.594869,-77528.864398
4794.718594,2220.617826,35085.761651,-82891.532884
4794.721139,24870.919651,9030.512492,-74464.482406
4794.723684,-2664.741391,-15396.283594,-75077.358804
4794.726229,-5921.647536,24130.713709,-80899.684589
4794.728777,296.082377,-4885.359217,-77988.521696
4794.731325,7698.141797,-10362.883188,-82585.094684
4794.733873,8586.388927,-17764.942608,-79980.369991
4794.736421,6365.771101,-592.164754,-73545.167808
4794.738968,-7402.059420,-5329.482782,-72932.291410
4794.741516,5329.482782,24130.713709,-79673.931792
4794.744064,-1628.453072,-8142.265362,-82585.094684
4794.746612,-7402.059420,3108.864956,-79827.150892
4794.749160,22798.343014,-36270.091158,-76149.892501
4794.751708,7994.224174,20133.601622,-73391.948708
4794.754255,4737.318029,-136049.852140,-84270.504780
4794.756803,-444.123565,296.082377,-84423.723880
4794.759351,15100.201217,117988.827155,-75537.016103
4794.761899,-592.164754,-27979.784608,-75537.016103
4794.764447,4145.153275,-118136.868343,-84883.381178
4794.766994,-8438.347739,33457.308578,-80899.684589
4794.769542,10807.006753,47373.180288,-70327.566716
4794.772090,1480.411884,-34049.473332,-78754.617194
4794.774638,-888.247130,11547.212695,-81818.999186
4794.777186,4589.276840,59216.475360,-75690.235202
4794.779734,22650.301825,-36566.173535,-75230.577904
4794.782281,-7550.100608,-51518.333563,-82125.437386
4794.784829,1332.370696,24574.837274,-78754.617194
4794.787377,7846.182985,-12583.501014,-77222.426198
4794.789925,4737.318029,41747.615129,-81972.218286
4794.792473,8734.430116,20873.807564,-78601.398095
4794.795021,-6661.853478,-34641.638086,-76762.768900
4794.797568,-592.164754,35529.885216,-78294.959896
4794.800116,592.164754,-1036.288319,-78294.959896
4794.802664,-4441.235652,-39675.038491,-82738.313784
4794.805212,14359.995275,33901.432144,-78907.836294
4794.807760,740.205942,3256.906145,-77528.864398
4794.810308,-11251.130318,-70319.564490,-85496.257577
4794.812855,9474.636058,1924.535449,-81052.903688
4794.815403,28868.031738,70467.605678,-68488.937521
4794.817951,-6217.729913,-3108.864956,-73698.386908
4794.820499,-9622.677246,-888.247130,-86722.010374
4794.823047,148.041188,-45596.686027,-86109.133975
4794.825594,20577.725188,-49889.880491,-78907.836294
4794.828142,24722.878463,48853.592172,-76303.111601
4794.830692,-8734.430116,35233.802839,-73085.510509
4794.833241,-8586.388927,-6809.894666,-80286.808190
4794.835791,14656.077652,12139.377449,-76762.768900
4794.838340,14359.995275,24130.713709,-76456.330700
4794.840889,-12731.542202,-296.082377,-80593.246390
4794.843439,1184.329507,-7994.224174,-78448.178995
4794.845988,6957.935855,-6809.894666,-77988.521696
4794.848538,-1184.329507,-28719.990550,-80440.027290
4794.851087,11251.130318,17320.819043,-78907.836294
4794.853637,888.247130,-17616.901420,-74311.263306
4794.856186,8142.265362,5921.647536,-79827.150892
4794.858735,296.082377,31236.690752,-81359.341888
4794.861285,-6513.812290,15692.365970,-77528.864398
4794.863834,10807.006753,-55811.528027,-76149.892501
4794.866384,17764.942608,-32569.061448,-79980.369991
4794.868933,7402.059420,-146560.776516,-89939.611465
4794.871482,-3256.906145,92081.619185,-80593.246390
4794.874032,16876.695478,113991.715068,-67109.965625
4794.876581,-5773.606348,-96670.896025,-78448.178995
4794.879131,-14359.995275,132052.740053,-78754.617194
4794.881680,27239.578666,-39526.997303,-73238.729609
4794.884230,-28127.825796,-112659.344372,-87334.886772
4794.886779,7402.059420,51518.333563,-81818.999186
4794.889328,18949.272115,-21465.972318,-72625.853210
4794.891878,-3997.112087,-46336.891969,-77528.864398
4794.894427,6069.688724,51962.457128,-77375.645298
4794.896977,15988.448347,-60252.763679,-77069.207099
4794.899526,296.082377,-15988.448347,-80593.246390
4794.902076,8734.430116,72244.099939,-76609.549800
4794.904625,3849.070898,-26795.455100,-77682.083497
4794.907174,-2960.823768,10658.965565,-79520.712692
4794.909724,-1184.329507,24870.919651,-78141.740796
4794.912273,6217.729913,-31384.731941,-75843.454302
4794.914823,6365.771101,29312.155303,-80286.808190
4794.917372,-1332.370696,-13619.789333,-80133.589091
4794.919922,18209.066173,10066.800811,-76915.987999
4794.922471,12435.459826,20133.601622,-77682.083497
4794.925020,-17320.819043,-62177.299128,-80593.246390
4794.927570,-17172.777854,-80238.324113,-88560.639569
4794.930119,39082.873738,68543.070229,-78754.617194
4794.932669,19245.354492,59512.557737,-65118.117330
4794.935220,-22502.260637,-127907.586778,-85955.914876
4794.937770,12287.418637,1480.411884,-85343.038477
4794.940320,32865.143825,131164.492922,-66803.527426
4794.942870,-46188.850781,-15988.448347,-76915.987999
4794.945421,9178.553681,7402.059420,-84117.285680
4794.947971,30644.525999,-17912.983796,-79061.055394
4794.950521,-5625.565159,-23538.548956,-77835.302597
4794.953071,-2664.741391,-10658.965565,-81512.560987
4794.955621,-3404.947333,43228.027013,-75843.454302
4794.958172,1480.411884,-17468.860231,-80133.589091
4794.960722,18505.148550,-16432.571912,-82738.313784
4794.963272,10510.924376,-8290.306550,-76149.892501
4794.965822,-19245.354492,-12435.459826,-74004.825107
4794.968372,-6809.894666,59364.516548,-75843.454302
4794.970923,25315.043216,-28719.990550,-82125.437386
4794.973473,-3997.112087,-20577.725188,-83810.847481
4794.976023,3997.112087,55219.363273,-73545.167808
4794.978573,11547.212695,15988.448347,-74617.701505
4794.981124,-14211.954086,147300.982458,-68795.375720
4794.983674,19837.519246,-70615.646867,-76149.892501
4794.986224,-9030.512492,-142563.664429,-89020.296868
4794.988774,-2220.617826,2960.823768,-89633.173266
4794.991324,592.164754,147893.147212,-67416.403824
4794.993875,18505.148550,54923.280896,-66497.089226
4794.996425,-11991.336260,-57588.022288,-79061.055394
4794.998975,-2368.659014,-40859.367998,-87028.448573
4795.001525,-3849.070898,-18209.066173,-82431.875585
4795.004075,-7846.182985,21614.013506,-77528.864398
4795.006626,18209.066173,16136.489536,-75230.577904
4795.009176,17172.777854,-56403.692780,-79214.274493
4795.011726,7402.059420,-2368.659014,-79520.712692
4795.014276,10807.006753,50037.921679,-75537.016103
4795.016827,9030.512492,-21465.972318,-78448.178995
4795.019377,-8586.388927,30792.567187,-79520.712692
4795.021927,6957.935855,10955.047942,-75996.673402
4795.024477,8438.347739,-31532.773129,-75537.016103
4795.027027,1628.453072,28868.031738,-80746.465489
4795.029578,2516.700203,-9770.718434,-78907.836294
4795.032128,6661.853478,2220.617826,-79827.150892
4795.034643,-10955.047942,1776.494261,-81665.780087
4795.037158,-5329.482782,-96818.937214,-88713.858668
4795.039673,20725.766376,123614.392314,-76915.987999
4795.042188,28868.031738,75501.006084,-63585.926334
4795.044703,-28571.949361,-79350.076982,-82585.094684
4795.047218,11103.089130,115176.044575,-81052.903688
4795.049732,1036.288319,-52702.663070,-76149.892501
4795.052247,-7698.141797,-120653.568546,-90246.049664
4795.054762,26647.413912,104220.996634,-76456.330700
4795.057277,2516.700203,-1776.494261,-68795.375720
4795.059792,7254.018232,-13767.830521,-79367.493593
4795.062307,10807.006753,44560.397708,-79214.274493
4795.064822,-10807.006753,-23538.548956,-77988.521696
4795.067337,-10362.883188,-6957.935855,-79673.931792
4795.069852,8882.471304,-9918.759623,-81972.218286
4795.072367,-4885.359217,-27979.784608,-81665.780087
4795.074882,3997.112087,8882.471304,-76915.987999
4795.077397,3552.988522,-19837.519246,-74158.044206
4795.079912,444.123565,17172.777854,-78294.959896
4795.082427,6513.812290,4145.153275,-85036.600278
4795.084942,7254.018232,-12731.542202,-75690.235202
4795.087457,-4441.235652,32272.979071,-71706.538613
4795.089972,296.082377,38490.708984,-74924.139704
4795.092487,6069.688724,-15692.365970,-77835.302597
4795.095002,8586.388927,-199855.604340,-84576.942979
4795.097517,-33605.349767,-104220.996634,-93003.993457
4795.100032,2812.782580,278021.351815,-73238.729609
4795.102546,22502.260637,-85715.848084,-62513.392637
4795.105061,-21317.931130,-180314.167471,-89633.173266
4795.107576,8734.430116,89564.918982,-89020.296868
4795.110091,17172.777854,-21169.889941,-72932.291410
4795.112606,740.205942,-13767.830521,-77375.645298
4795.115121,11251.130318,39230.914926,-76915.987999
4795.117636,-14359.995275,12879.583391,-74004.825107
4795.120151,1036.288319,-45300.603650,-82278.656485
4795.122666,5477.523971,-9622.677246,-83504.409282
4795.125181,-7698.141797,44856.480085,-78448.178995
4795.127696,8142.265362,-5477.523971,-78601.398095
4795.130211,1776.494261,-18357.107362,-79827.150892
4795.132726,-3404.947333,46781.015534,-75230.577904
4795.135249,11991.336260,-9474.636058,-75383.797003
4795.137773,444.123565,-20577.725188,-83351.190182
4795.140296,6365.771101,35233.802839,-78141.740796
4795.142820,13471.748144,14656.077652,-75383.797003
4795.145343,12583.501014,-36418.132346,-78601.398095
4795.147866,-11991.336260,-84531.518576,-85649.476676
4795.150390,10658.965565,93858.113446,-77528.864398
4795.152913,-296.082377,-72984.305881,-78754.617194
4795.155437,-3849.070898,-26499.372724,-82125.437386
4795.157960,53738.951389,4441.235652,-79214.274493
4795.160483,5921.647536,-43079.985824,-75843.454302
4795.163007,-9622.677246,48853.592172,-78448.178995
4795.165530,7994.224174,23538.548956,-76303.111601
4795.168054,1776.494261,-20577.725188,-81818.999186
4795.170577,1036.288319,9770.718434,-79520.712692
4795.173101,148.041188,1924.535449,-77835.302597
4795.175624,-3997.112087,38934.832549,-77682.083497
4795.178147,17024.736666,-4737.318029,-78754.617194
4795.180671,-1628.453072,-32272.979071,-79061.055394
4795.183194,-2664.741391,-18801.230927,-79367.493593
4795.185718,-148.041188,1628.453072,-76915.987999
4795.188241,-1184.329507,45448.644839,-75230.577904
4795.190764,15988.448347,-18653.189738,-81206.122788
4795.193288,444.123565,-17912.983796,-82585.094684
4795.195811,-2516.700203,36714.214723,-74004.825107
4795.198335,12435.459826,-84679.559765,-77222.426198
4795.200858,2516.700203,-125835.010140,-89326.735067
4795.203382,-1776.494261,92081.619185,-82431.875585
4795.205905,22798.343014,62177.299128,-71706.538613
4795.208428,6365.771101,-41747.615129,-74158.044206
4795.210952,-2072.576638,-40711.326810,-85802.695776
4795.213475,15248.242405,-89416.877794,-79367.493593
4795.215999,-12731.542202,-90897.289678,-86568.791274
4795.218522,5625.565159,69431.317360,-79214.274493
4795.221045,13767.830521,23834.631332,-74464.482406
4795.223569,17764.942608,-49445.756926,-78601.398095
4795.226092,-11991.336260,51666.374752,-75383.797003
4795.228616,-740.205942,-31384.731941,-75843.454302
4795.231139,-4885.359217,-34197.514520,-83657.628382
4795.233663,10362.883188,62177.299128,-79061.055394
4795.236192,10066.800811,-22354.219448,-78448.178995
4795.238722,2516.700203,-6217.729913,-78754.617194
4795.241252,-3404.947333,54923.280896,-76609.549800
4795.243781,8142.265362,1184.329507,-72779.072310
4795.246311,888.247130,-38046.585419,-82431.875585
4795.248840,1036.288319,32569.061448,-82431.875585
4795.251370,25167.002028,-888.247130,-76762.768900
4795.253900,8882.471304,-91045.330866,-79367.493593
4795.256429,-12435.459826,-37158.338288,-83351.190182
4795.258959,14211.954086,97855.225532,-75843.454302
4795.261489,19097.313304,9474.636058,-71093.662214
4795.264018,1776.494261,34493.596897,-77682.083497
4795.266548,7698.141797,40119.162056,-77528.864398
4795.269078,0.000000,-110290.685358,-84270.504780
4795.271607,1332.370696,-69875.440925,-80286.808190
4795.274137,-4293.194464,23094.425390,-79214.274493
4795.276667,-3701.029710,-18949.272115,-80593.246390
4795.279196,9030.512492,4145.153275,-80593.246390
4795.281726,12435.459826,28868.031738,-74311.263306
4795.284256,-6513.812290,21021.848753,-74311.263306
4795.286785,2960.823768,-740.205942,-79827.150892
4795.289315,1924.535449,-37010.297100,-83504.409282
4795.291845,1480.411884,-20429.683999,-81665.780087
4795.294374,-4145.153275,-5033.400406,-76609.549800
4795.296904,-7698.141797,50334.004056,-74158.044206
4795.299434,14211.954086,-3701.029710,-83810.847481
4795.301963,1332.370696,-14063.912898,-77835.302597
4795.304493,2960.823768,50778.127621,-71553.319513
4795.307023,16136.489536,-14063.912898,-73238.729609
4795.309552,888.247130,-180758.291036,-90705.706963
4795.312082,-5921.647536,55219.363273,-84883.381178
4795.314612,18653.189738,94154.195822,-71093.662214
4795.317141,-1480.411884,-127907.586778,-79980.369991
4795.319671,-18505.148550,44856.480085,-86722.010374
4795.322201,14359.995275,144636.241067,-66956.746525
4795.324730,-2960.823768,-128055.627966,-74464.482406
4795.327260,-20281.642811,9326.594869,-89326.735067
4795.329790,-2516.700203,58920.392983,-83657.628382
4795.332319,-1776.494261,9030.512492,-71093.662214
4795.334849,-10214.842000,-86159.971649,-82431.875585
4795.337385,6069.688724,34937.720462,-81512.560987
4795.339920,19985.560434,-8734.430116,-76456.330700
4795.342456,-888.247130,7994.224174,-79214.274493
4795.344991,11399.171507,60252.763679,-77375.645298
4795.347527,1776.494261,-19985.560434,-76303.111601
4795.350062,-13027.624579,-4145.153275,-81206.122788
4795.352598,6069.688724,22798.343014,-76609.549800
4795.355133,5329.482782,-29756.278868,-79673.931792
4795.357669,592.164754,8882.471304,-80746.465489
4795.360205,-9474.636058,131016.451734,-70480.785816
4795.362740,12879.583391,85863.889272,-67876.061123
4795.365276,-8290.306550,-143451.911560,-83197.971083
4795.367811,-7254.018232,-53442.869012,-91778.240660
4795.370347,2516.700203,147745.106023,-75690.235202
4795.372882,19097.313304,15100.201217,-68642.156621
4795.375418,21762.054695,-144636.241067,-84883.381178
4795.377953,5477.523971,45596.686027,-81512.560987
4795.380489,-8586.388927,22798.343014,-75077.358804
4795.383025,3108.864956,-4293.194464,-80286.808190
4795.385560,8734.430116,39230.914926,-79367.493593
4795.388096,3256.906145,20429.683999,-72932.291410
4795.390631,740.205942,-5921.647536,-77835.302597
4795.393167,10362.883188,10214.842000,-78294.959896
4795.395702,-2072.576638,-21169.889941,-80440.027290
4795.398238,-13471.748144,-29312.155303,-82738.313784
4795.400774,14211.954086,10066.800811,-79980.369991
4795.403309,0.000000,35825.967593,-68948.594820
4795.405845,20133.601622,-33457.308578,-79214.274493
4795.408380,7254.018232,-2072.576638,-80440.027290
4795.410916,-18801.230927,7994.224174,-82738.313784
4795.413451,-3256.906145,-44856.480085,-79520.712692
4795.415987,-17172.777854,18505.148550,-83044.751983
4795.418522,15840.407159,175576.849442,-66650.308326
4795.421058,21910.095883,-74760.800142,-72625.853210
4795.423594,-6069.688724,-81422.653620,-85802.695776
4795.426129,-11695.253884,-94450.278199,-91778.240660
4795.428665,-10066.800811,71948.017562,-79520.712692
4795.431200,27831.743419,50334.004056,-70327.566716
4795.433736,1036.288319,-38638.750172,-75690.235202
4795.436271,4589.276840,24130.713709,-78907.836294
4795.438806,12139.377449,-8586.388927,-79214.274493
4795.441345,-20281.642811,-49889.880491,-82125.437386
4795.443885,3256.906145,39230.914926,-79520.712692
4795.446425,14063.912898,21614.013506,-78754.617194
4795.448964,2220.617826,-12139.377449,-78907.836294
4795.451504,14656.077652,37158.338288,-77375.645298
4795.454044,-1184.329507,10510.924376,-75230.577904
4795.456583,-11695.253884,-9622.677246,-78907.836294
4795.459123,14063.912898,22206.178260,-79061.055394
4795.461663,8882.471304,-21465.972318,-79520.712692
4795.464202,4737.318029,18061.024985,-76303.111601
4795.466742,8734.430116,46040.809592,-77222.426198
4795.469281,3404.947333,-164325.719124,-85955.914876
4795.471821,148.041188,-7402.059420,-86109.133975
4795.474361,9474.636058,82162.859562,-84117.285680
4795.476900,15248.242405,-52702.663070,-76149.892501
4795.479440,-7846.182985,48113.386230,-79827.150892
4795.481980,3997.112087,182682.826486,-69408.252119
4795.484519,-1776.494261,-67210.699534,-68182.499322
4795.487059,-19541.436869,-34493.596897,-88867.077768
4795.489599,4145.153275,25018.960840,-83351.190182
4795.492138,4737.318029,-55811.528027,-79367.493593
4795.494678,5033.400406,19393.395680,-75843.454302
4795.497218,7105.977043,67802.864287,-74924.139704
4795.499757,11991.336260,-29312.155303,-76762.768900
4795.502297,1184.329507,-5773.606348,-80593.246390
4795.504837,12731.542202,9474.636058,-78907.836294
4795.507376,-7698.141797,-48409.468607,-79367.493593
4795.509916,-14063.912898,37750.503042,-77988.521696
4795.512456,18653.189738,20873.807564,-76149.892501
4795.514995,-2368.659014,-35085.761651,-82431.875585
4795.517535,444.123565,444.123565,-80133.589091
4795.520074,17172.777854,-127019.339647,-85189.819378
4795.522614,-20725.766376,152334.382864,-74924.139704
4795.525154,21614.013506,54035.033766,-64811.679131
4795.527693,1776.494261,-212587.146542,-88100.982270
4795.530233,-21614.013506,169655.201906,-83044.751983
4795.532773,10955.047942,242047.343034,-71706.538613
4795.535312,7402.059420,-145080.364632,-68488.937521
4795.537852,-8586.388927,-39082.873738,-89633.173266
4795.540361,9918.759623,94154.195822,-72472.634111
4795.542869,7254.018232,-90157.083736,-76762.768900
4795.545378,-7254.018232,36566.173535,-83810.847481
4795.547886,11843.295072,5033.400406,-74311.263306
4795.550395,444.123565,-59512.557737,-78754.617194
4795.552903,1628.453072,71207.811620,-80286.808190
4795.555412,3997.112087,-11991.336260,-76456.330700
4795.557921,-296.082377,-7550.100608,-79520.712692
4795.560429,6069.688724,51370.292375,-82125.437386
4795.562938,7402.059420,-8438.347739,-77222.426198
4795.565446,3701.029710,-8882.471304,-78448.178995
4795.567955,2072.576638,21169.889941,-81359.341888
4795.570464,1628.453072,-740.205942,-76149.892501
4795.572972,-8734.430116,131608.616488,-72472.634111
4795.575481,1332.370696,-27979.784608,-76915.987999
4795.577989,-16728.654289,-112067.179619,-86722.010374
4795.580498,30792.567187,-40711.326810,-88254.201370
4795.583006,-13619.789333,183274.991239,-69255.033019
4795.585515,19097.313304,-2072.576638,-68488.937521
4795.588024,12287.418637,-119025.115474,-84117.285680
4795.590532,11547.212695,-15100.201217,-83810.847481
4795.593041,296.082377,3404.947333,-82891.532884
4795.595549,-9178.553681,-35085.761651,-78754.617194
4795.598058,5181.441594,38786.791361,-79061.055394
4795.600566,-1036.288319,47817.303853,-75077.358804
4795.603075,12287.418637,-35825.967593,-76609.549800
4795.605584,3552.988522,-1924.535449,-79980.369991
4795.608092,-7105.977043,-19541.436869,-82738.313784
4795.610601,740.205942,-9326.594869,-79827.150892
4795.613109,888.247130,16284.530724,-74770.920605
4795.615618,13619.789333,-13767.830521,-75537.016103
4795.618127,2812.782580,19689.478057,-81818.999186
4795.620635,-10066.800811,18949.272115,-79520.712692
4795.623144,-12879.583391,48705.550984,-75383.797003
4795.625652,14508.036463,21910.095883,-72012.976812
4795.628161,-8882.471304,-19689.478057,-81206.122788
4795.630669,-5773.606348,145820.570574,-75230.577904
4795.633178,9030.512492,-144784.282255,-75230.577904
4795.635687,-9918.759623,33161.226202,-83964.066581
4795.638195,12139.377449,12139.377449,-77835.302597
4795.640714,7254.018232,-81718.735997,-76915.987999
4795.643233,8882.471304,57884.104664,-76762.768900
4795.645752,-1628.453072,19689.478057,-76915.987999
4795.648271,-15396.283594,3701.029710,-78448.178995
4795.650790,-1924.535449,-31680.814318,-79827.150892
4795.653309,5329.482782,-28719.990550,-78601.398095
4795.655828,-740.205942,29164.114115,-79980.369991
4795.658347,9474.636058,10807.006753,-79673.931792
4795.660866,-1924.535449,11843.295072,-76762.768900
4795.663385,3997.112087,36122.049970,-74004.825107
4795.665904,4293.194464,-18209.066173,-77682.083497
4795.668423,0.000000,-4145.153275,-84270.504780
4795.670942,14063.912898,10510.924376,-76149.892501
4795.673461,7105.977043,31976.896694,-74770.920605
4795.675980,1184.329507,27239.578666,-79061.055394
4795.678499,1332.370696,-61141.010809,-77528.864398
4795.681018,-2072.576638,-98743.472663,-86262.353075
4795.683536,1480.411884,53738.951389,-81818.999186
4795.686055,-12287.418637,43376.068201,-76762.768900
4795.688574,9030.512492,86604.095214,-75077.358804
4795.691093,3404.947333,29756.278868,-70021.128517
4795.693612,-17320.819043,-38786.791361,-80899.684589
4795.696131,-1332.370696,5033.400406,-86722.010374
4795.698650,-2516.700203,-17616.901420,-81052.903688
4795.701169,4885.359217,148.041188,-78907.836294
4795.703688,7994.224174,53590.910201,-73238.729609
4795.706207,19097.313304,-13323.706956,-76303.111601
4795.708726,-1332.370696,-23242.466579,-81818.999186
4795.711245,2072.576638,5921.647536,-78141.740796
4795.713764,6809.894666,-15988.448347,-76149.892501
4795.716283,-11103.089130,24130.713709,-74924.139704
4795.718802,23834.631332,-25315.043216,-81665.780087
4795.721321,10658.965565,4293.194464,-76456.330700
4795.723840,-11695.253884,27683.702231,-77069.207099
4795.726359,-5329.482782,78313.788664,-73545.167808
4795.728878,23094.425390,-92673.783938,-78141.740796
4795.731397,-14804.118840,-81866.777185,-86415.572174
4795.733916,1628.453072,88528.630663,-78448.178995
4795.736435,15840.407159,-43524.109390,-81818.999186
4795.738954,-17616.901420,-99927.802170,-87641.324971
4795.741481,6069.688724,108810.273474,-77682.083497
4795.744008,20133.601622,-21317.931130,-70480.785816
4795.746535,-5033.400406,-24574.837274,-83964.066581
4795.749062,21910.095883,14508.036463,-80593.246390
4795.751589,-20281.642811,10510.924376,-74004.825107
4795.754116,-10955.047942,-8882.471304,-80133.589091
4795.756643,6957.935855,-24130.713709,-80899.684589
4795.759170,14359.995275,17912.983796,-80593.246390
4795.761697,11399.171507,9326.594869,-77375.645298
4795.764224,2812.782580,-2664.741391,-75843.454302
4795.766751,-5477.523971,23390.507767,-75230.577904
4795.769278,9326.594869,8142.265362,-79827.150892
4795.771805,740.205942,-12879.583391,-79367.493593
4795.774332,296.082377,16136.489536,-81206.122788
4795.776859,2220.617826,36566.173535,-77528.864398
4795.779386,-10362.883188,155739.330197,-68335.718422
4795.781913,-1480.411884,-40711.326810,-73391.948708
4795.784440,-1036.288319,-112067.179619,-86262.353075
4795.786967,-2812.782580,119321.197850,-81818.999186
4795.789494,21317.931130,-55663.486838,-77222.426198
4795.792021,16432.571912,-130128.204604,-83964.066581
4795.794548,2072.576638,12287.418637,-81052.903688
4795.797075,12879.583391,45744.727216,-75077.358804
4795.799602,-4885.359217,-32421.020260,-76149.892501
4795.802129,11399.171507,51666.374752,-80746.465489
4795.804656,4441.235652,1480.411884,-74924.139704
4795.807183,2220.617826,-32569.061448,-79980.369991
4795.809710,-3108.864956,21910.095883,-80899.684589
4795.812237,-2368.659014,-28719.990550,-77375.645298
4795.814764,-1036.288319,-5329.482782,-76915.987999
4795.817292,7698.141797,-18209.066173,-81052.903688
4795.819819,3404.947333,-1924.535449,-79520.712692
4795.822346,-2960.823768,16284.530724,-79367.493593
4795.824873,7698.141797,-7402.059420,-74311.263306
4795.827400,8142.265362,-72984.305881,-79827.150892
4795.829927,3108.864956,-87492.342344,-87334.886772
4795.832454,-6365.771101,132940.987183,-77069.207099
4795.834981,21169.889941,17320.819043,-68642.156621
4795.837508,3849.070898,-159884.483472,-85955.914876
4795.840035,-19689.478057,96966.978402,-81665.780087
4795.842569,4589.276840,109994.602981,-64964.898230
4795.845103,-8586.388927,-93710.072257,-78448.178995
4795.847637,7254.018232,31532.773129,-86722.010374
4795.850171,5921.647536,-21465.972318,-79673.931792
4795.852705,-18653.189738,-2516.700203,-74311.263306
4795.855240,-1628.453072,-15396.283594,-81052.903688
4795.857774,11103.089130,-14063.912898,-79673.931792
4795.860308,1332.370696,22798.343014,-79061.055394
4795.862842,15248.242405,-3701.029710,-79827.150892
4795.865376,-888.247130,13471.748144,-77528.864398
4795.867910,3849.070898,38490.708984,-73851.606007
4795.870444,3404.947333,-14063.912898,-76915.987999
4795.872978,-2812.782580,-6957.935855,-81665.780087
4795.875513,12435.459826,26351.331535,-79367.493593
4795.878047,13027.624579,-12287.418637,-79520.712692
4795.880581,5033.400406,-11399.171507,-73698.386908
4795.883115,6217.729913,-151742.218110,-86875.229473
4795.885649,6069.688724,30940.608376,-82738.313784
4795.888183,-3108.864956,144784.282255,-69255.033019
4795.890717,4293.194464,83051.106692,-69255.033019
4795.893251,16580.613101,-113547.591503,-81818.999186
4795.895786,-4885.359217,-21762.054695,-85649.476676
4795.898320,-7698.141797,31236.690752,-78141.740796
4795.900854,-7105.977043,10658.965565,-74464.482406
4795.903388,15100.201217,31680.814318,-76762.768900
4795.905922,11251.130318,1480.411884,-78754.617194
4795.908456,-2516.700203,-27387.619854,-78294.959896
4795.910990,-296.082377,-6513.812290,-79827.150892
4795.913524,2072.576638,5181.441594,-77375.645298
4795.916059,2516.700203,3404.947333,-74158.044206
4795.918593,-3108.864956,-24130.713709,-76762.768900
4795.921127,11103.089130,-11547.212695,-82585.094684
4795.923661,7402.059420,25463.084405,-83044.751983
4795.926195,148.041188,-20281.642811,-78754.617194
4795.928729,-4145.153275,-15396.283594,-74311.263306
4795.931263,-11695.253884,139602.840661,-73238.729609
4795.933797,8734.430116,14656.077652,-72472.634111
4795.936332,3256.906145,-132644.904806,-85802.695776
4795.938866,-1036.288319,20429.683999,-82431.875585
4795.941400,5181.441594,-124502.639444,-84270.504780
4795.943939,-7550.100608,-92377.701562,-83197.971083
4795.946479,888.247130,110882.850112,-77835.302597
4795.949018,8734.430116,12435.459826,-73391.948708
4795.951558,35974.008781,-50037.921679,-79061.055394
4795.954097,-4293.194464,43376.068201,-79061.055394
4795.956637,-12139.377449,-25167.002028,-78601.398095
4795.959176,-5921.647536,-28423.908173,-80133.589091
4795.961716,4885.359217,62917.505070,-79061.055394
4795.964255,5329.482782,-22798.343014,-78448.178995
4795.966795,-888.247130,-35529.885216,-81052.903688
4795.969334,1480.411884,38934.832549,-79061.055394
4795.971874,11103.089130,-5033.400406,-75690.235202
4795.974413,1776.494261,-3256.906145,-75383.797003
4795.976953,8438.347739,48853.592172,-77682.083497
4795.979492,888.247130,71503.893997,-76762.768900
4795.982032,2516.700203,-127315.422024,-82278.656485
4795.984571,-740.205942,-96522.854837,-90092.830565
4795.987111,4589.276840,170543.449037,-78754.617194
4795.989650,11991.336260,-128943.875096,-75230.577904
4795.992190,-12583.501014,-740.205942,-83504.409282
4795.994729,-2664.741391,210662.611093,-70940.443115
4795.997269,-6957.935855,41007.409187,-72932.291410
4795.999808,-6069.688724,-45152.562462,-82738.313784
4796.002348,9918.759623,71948.017562,-76303.111601
4796.004887,-1628.453072,-32272.979071,-76609.549800
4796.007427,-8290.306550,-10807.006753,-81818.999186
4796.009966,13619.789333,23390.507767,-79520.712692
4796.012506,2368.659014,-28571.949361,-79367.493593
4796.015045,6365.771101,-11695.253884,-81818.999186
4796.017585,8438.347739,24870.919651,-74617.701505
4796.020124,-3849.070898,-1332.370696,-72319.415011
4796.022664,5329.482782,-25018.960840,-79214.274493
4796.025174,-1480.411884,17616.901420,-83657.628382
4796.027685,-444.123565,-6365.771101,-79980.369991
4796.030196,14508.036463,-142563.664429,-81512.560987
4796.032706,-14063.912898,14656.077652,-82431.875585
4796.035217,12287.418637,176613.137761,-68488.937521
4796.037728,32717.102636,-123318.309937,-71246.881314
4796.040238,1776.494261,-144192.117502,-89939.611465
4796.042749,-1036.288319,195118.286311,-75077.358804
4796.045259,18653.189738,-24574.837274,-63279.488135
4796.047770,4293.194464,-43376.068201,-82585.094684
4796.050281,-11695.253884,49001.633360,-77988.521696
4796.052791,4589.276840,-30052.361245,-76609.549800
4796.055302,-5921.647536,-78017.706287,-84883.381178
4796.057812,2960.823768,19541.436869,-79061.055394
4796.060323,10510.924376,35677.926404,-73238.729609
4796.062834,11251.130318,-43672.150578,-80593.246390
4796.065344,1924.535449,45152.562462,-78448.178995
4796.067855,2220.617826,23834.631332,-74004.825107
4796.070366,-3108.864956,-35677.926404,-77222.426198
4796.072876,6809.894666,30052.361245,-81665.780087
4796.075387,3701.029710,-7402.059420,-81206.122788
4796.077897,-7698.141797,-24574.837274,-79367.493593
4796.080408,-888.247130,127759.545589,-71400.100414
4796.082919,17024.736666,204740.963557,-71553.319513
4796.085429,13323.706956,-21169.889941,-67569.622924
4796.087940,18061.024985,-168914.995964,-90552.487864
4796.090451,-14211.954086,2960.823768,-90246.049664
4796.092961,-8734.430116,146264.694139,-71400.100414
4796.095472,-4293.194464,-11695.253884,-72472.634111
4796.097982,11399.171507,1628.453072,-76456.330700
4796.100493,13323.706956,6661.853478,-77682.083497
4796.103004,-7550.100608,-20577.725188,-80899.684589
4796.105514,3701.029710,15396.283594,-80593.246390
4796.108025,2368.659014,7994.224174,-75843.454302
4796.110535,6661.853478,-23982.672521,-78294.959896
4796.113046,-4737.318029,-13027.624579,-79980.369991
4796.115557,13175.665768,15100.201217,-76915.987999
4796.118067,1480.411884,-12287.418637,-76762.768900
4796.120578,5033.400406,-18061.024985,-83044.751983
4796.123089,-1332.370696,26351.331535,-80440.027290
4796.125610,-9030.512492,-21910.095883,-78754.617194
4796.128130,-5477.523971,-1480.411884,-77222.426198
4796.130651,7994.224174,86308.012837,-73545.167808
4796.133172,-3552.988522,-182534.785297,-89173.515967
4796.135693,-37158.338288,278317.434192,-78601.398095
4796.138214,9474.636058,-64397.916954,-68335.718422
4796.140735,-22354.219448,-201039.933847,-82585.094684
4796.143256,13767.830521,90897.289678,-84270.504780
4796.145777,19689.478057,31680.814318,-72166.195912
4796.148298,-6661.853478,-127315.422024,-84117.285680
4796.150819,8734.430116,74316.676577,-82278.656485
4796.153340,10510.924376,-18801.230927,-71553.319513
4796.155861,-10658.965565,-18801.230927,-77528.864398
4796.158382,13027.624579,68987.193794,-79980.369991
4796.160903,1184.329507,-29904.320057,-79673.931792
4796.163424,13175.665768,2812.782580,-80593.246390
4796.165945,4885.359217,26203.290347,-77222.426198
4796.168466,-12435.459826,-10066.800811,-74464.482406
4796.170987,-3256.906145,2368.659014,-77988.521696
4796.173508,3552.988522,12879.583391,-81359.341888
4796.176029,740.205942,-25907.207970,-83351.190182
4796.178550,148.041188,116064.291706,-74924.139704
4796.181071,5033.400406,41895.656317,-70021.128517
4796.183592,-11695.253884,-89120.795417,-80286.808190
4796.186113,1036.288319,13323.706956,-84730.162079
4796.188634,4441.235652,-68543.070229,-81359.341888
4796.191155,7254.018232,44116.274143,-76915.987999
4796.193676,6809.894666,79794.200548,-77069.207099
4796.196197,8142.265362,-39230.914926,-76609.549800
4796.198718,8290.306550,-21465.972318,-73698.386908
4796.201239,5033.400406,27387.619854,-79061.055394
4796.203760,-5773.606348,21317.931130,-79214.274493
4796.206281,12139.377449,-14804.118840,-80286.808190
4796.208802,296.082377,-3701.029710,-80286.808190
4796.211323,-2960.823768,-30792.567187,-79673.931792
4796.213844,5477.523971,11103.089130,-75843.454302
4796.216365,4885.359217,16876.695478,-72319.415011
4796.218886,4293.194464,-15988.448347,-81359.341888
4796.221407,-740.205942,1184.329507,-86722.010374
4796.223928,-3849.070898,-5329.482782,-83044.751983
4796.226457,-5033.400406,39230.914926,-79367.493593
4796.228986,-5625.565159,90453.166112,-73391.948708
4796.231515,7402.059420,47225.139100,-70787.224015
4796.234044,19985.560434,-53294.827824,-81818.999186
4796.236573,-2368.659014,42783.903448,-79827.150892
4796.239102,3701.029710,-95190.484141,-80899.684589
4796.241631,-6513.812290,-46188.850781,-83964.066581
4796.244160,16728.654289,70319.564490,-72779.072310
4796.246690,23834.631332,-39675.038491,-75690.235202
4796.249219,-9622.677246,18653.189738,-80286.808190
4796.251748,4589.276840,-8438.347739,-80593.246390
4796.254277,740.205942,-46781.015534,-79061.055394
4796.256806,-4885.359217,27831.743419,-78601.398095
4796.259335,5181.441594,27979.784608,-77988.521696
4796.261864,-6069.688724,-7994.224174,-76456.330700
4796.264393,5329.482782,37602.461854,-81512.560987
4796.266922,1776.494261,-3701.029710,-77375.645298
4796.269451,-148.041188,-24722.878463,-80440.027290
4796.271980,11547.212695,7994.224174,-80593.246390
4796.274509,2072.576638,-74908.841330,-81206.122788
4796.277038,-5329.482782,67950.905476,-77988.521696
4796.279568,11547.212695,98151.307909,-73238.729609
4796.282097,-4737.318029,-66766.575968,-77682.083497
4796.284626,4145.153275,53294.827824,-83197.971083
4796.287155,-7254.018232,142267.582052,-75537.016103
4796.289684,-3404.947333,28868.031738,-69561.471218
4796.292213,-2664.741391,-35233.802839,-81972.218286
4796.294742,3256.906145,37750.503042,-80440.027290
4796.297271,1628.453072,-33161.226202,-75843.454302
4796.299800,-888.247130,-10510.924376,-82738.313784
4796.302329,5181.441594,54479.157331,-77222.426198
4796.304858,2220.617826,-32272.979071,-77682.083497
4796.307387,3552.988522,-7846.182985,-80440.027290
4796.309916,9918.759623,16284.530724,-77222.426198
4796.312446,-6957.935855,-39082.873738,-76762.768900
4796.314975,-4885.359217,-6957.935855,-81818.999186
4796.317504,10362.883188,39823.079680,-78754.617194
4796.320033,4293.194464,888.247130,-74617.701505
4796.322562,-592.164754,20133.601622,-74158.044206
4796.325091,15100.201217,-136642.016893,-84883.381178
4796.327627,-3701.029710,-20577.725188,-86109.133975
4796.330163,9030.512492,93265.948692,-74617.701505
4796.332700,23686.590144,-71799.976374,-74924.139704
4796.335236,-4293.194464,-107625.943967,-87181.667672
4796.337772,3701.029710,95190.484141,-78907.836294
4796.340308,9770.718434,-3108.864956,-69714.690318
4796.342844,-10955.047942,-24426.796086,-82738.313784
4796.345381,-17024.736666,49445.756926,-84423.723880
4796.347917,17024.736666,-32569.061448,-76456.330700
4796.350453,1332.370696,-31680.814318,-75690.235202
4796.352989,-7550.100608,75056.882519,-79673.931792
4796.355526,6365.771101,-23390.507767,-79980.369991
4796.358062,2812.782580,10658.965565,-78141.740796
4796.360598,9326.594869,16876.695478,-77988.521696
4796.363134,-592.164754,-30496.484810,-77682.083497
4796.365671,4293.194464,35974.008781,-77375.645298
4796.368207,6069.688724,23834.631332,-77835.302597
4796.370743,-9326.594869,63065.546258,-73851.606007
4796.373279,-1036.288319,170839.531414,-74158.044206
4796.375815,8882.471304,-16284.530724,-73545.167808
4796.378352,-10066.800811,-131460.575299,-83964.066581
4796.380888,-9326.594869,48557.509795,-85343.038477
4796.383424,-8734.430116,159144.277530,-71859.757712
4796.385960,-3256.906145,-18801.230927,-74311.263306
4796.388497,19541.436869,-3997.112087,-78754.617194
4796.391033,4737.318029,4145.153275,-79827.150892
4796.393569,-23242.466579,-40563.285622,-81972.218286
4796.396105,6513.812290,12287.418637,-81359.341888
4796.398642,-6365.771101,52554.621882,-75077.358804
4796.401178,15544.324782,-38490.708984,-77375.645298
4796.403714,11399.171507,-18505.148550,-83044.751983
4796.406250,14656.077652,7994.224174,-75996.673402
4796.408786,-9474.636058,-29756.278868,-72932.291410
4796.411323,-14359.995275,42339.779882,-79980.369991
4796.413859,14508.036463,-11991.336260,-85955.914876
4796.416395,6661.853478,-21614.013506,-79367.493593
4796.418931,3997.112087,-71799.976374,-79827.150892
4796.421468,6661.853478,-78905.953417,-83351.190182
4796.424004,-592.164754,117544.703590,-75077.358804
4796.426540,10066.800811,36418.132346,-68795.375720
4796.429080,20281.642811,-56551.733969,-78448.178995
4796.431621,13323.706956,-47373.180288,-78907.836294
4796.434162,-10658.965565,-100816.049300,-87794.544071
4796.436704,4441.235652,10955.047942,-78294.959896
4796.439245,9918.759623,444.123565,-74004.825107
4796.441787,-20725.766376,32272.979071,-80746.465489
4796.444328,19837.519246,-33161.226202,-80133.589091
4796.446869,14508.036463,-13471.748144,-75230.577904
4796.449411,-7846.182985,40119.162056,-78294.959896
4796.451952,3404.947333,-4145.153275,-80133.589091
4796.454494,-5033.400406,15248.242405,-77528.864398
4796.457035,8290.306550,6513.812290,-77682.083497
4796.459576,4885.359217,-15248.242405,-76915.987999
4796.462118,1628.453072,-1480.411884,-81512.560987
4796.464659,-4737.318029,12287.418637,-80286.808190
4796.467200,-3552.988522,70763.688055,-72932.291410
4796.469742,888.247130,152778.506429,-68335.718422
4796.472283,-1480.411884,-127759.545589,-80133.589091
4796.474825,1036.288319,-34049.473332,-86262.353075
4796.477366,11547.212695,-60400.804867,-85496.257577
4796.479907,-5625.565159,-29904.320057,-80286.808190
4796.482449,16728.654289,136345.934516,-74311.263306
4796.484990,3552.988522,-1480.411884,-71859.757712
4796.487531,1332.370696,-20577.725188,-78907.836294
4796.490073,11103.089130,42783.903448,-76609.549800
4796.492614,-1184.329507,3256.906145,-77222.426198
4796.495156,-7698.141797,-39082.873738,-83044.751983
4796.497697,3997.112087,29016.072926,-80440.027290
4796.500238,3552.988522,-38194.626607,-76915.987999
4796.502780,4885.359217,1036.288319,-74924.139704
4796.505321,5329.482782,-6661.853478,-78448.178995
4796.507863,-1332.370696,-740.205942,-79061.055394
4796.510404,7698.141797,17172.777854,-81206.122788
4796.512945,12731.542202,-11251.130318,-76149.892501
4796.515487,3404.947333,-111326.973677,-81359.341888
4796.518028,2960.823768,-74020.594200,-86568.791274
4796.520569,-8586.388927,45892.768404,-84117.285680
4796.523111,17912.983796,37750.503042,-72319.415011
4796.525652,11251.130318,-144192.117502,-83810.847481
4796.528194,-1776.494261,167582.625269,-77528.864398
4796.530740,10955.047942,31976.896694,-62206.954438
4796.533286,-8438.347739,-90897.289678,-80133.589091
4796.535832,23982.672521,-1628.453072,-84117.285680
4796.538378,-14804.118840,3552.988522,-79673.931792
4796.540924,-15544.324782,-7994.224174,-80286.808190
4796.543470,23390.507767,3404.947333,-76149.892501
4796.546016,8586.388927,24278.754898,-77069.207099
4796.548562,4589.276840,296.082377,-77682.083497
4796.551108,0.000000,-16136.489536,-77835.302597
4796.553654,592.164754,11547.212695,-78294.959896
4796.556200,11843.295072,2368.659014,-79061.055394
4796.558746,-2516.700203,-7105.977043,-79827.150892
4796.561293,9474.636058,-14359.995275,-77682.083497
4796.563839,3849.070898,-37750.503042,-79980.369991
4796.566385,-4441.235652,219397.041209,-72012.976812
4796.568931,3997.112087,-37158.338288,-70327.566716
4796.571477,296.082377,-200891.892659,-90092.830565
4796.574023,-9030.512492,275504.651612,-78448.178995
4796.576569,-1184.329507,7698.141797,-64964.898230
4796.579115,-11399.171507,-102296.461184,-74924.139704
4796.581661,13471.748144,36122.049970,-84883.381178
4796.584207,2812.782580,12583.501014,-78448.178995
4796.586753,-592.164754,-76241.212026,-79827.150892
4796.589299,1036.288319,63065.546258,-81052.903688
4796.591845,4293.194464,2664.741391,-75230.577904
4796.594392,10066.800811,-31088.649564,-79214.274493
4796.596938,3997.112087,13915.871710,-78141.740796
4796.599484,-3108.864956,-15988.448347,-77222.426198
4796.602030,-5477.523971,4441.235652,-79980.369991
4796.604576,14952.160028,-4885.359217,-79827.150892
4796.607122,-4589.276840,-21910.095883,-78601.398095
4796.609668,-6513.812290,-37898.544230,-79061.055394
4796.612214,-1332.370696,158107.989211,-74158.044206
4796.614760,19541.436869,-52258.539505,-72625.853210
4796.617306,-6069.688724,-173060.149240,-87947.763170
4796.619852,-7402.059420,64990.081708,-86262.353075
4796.622398,4145.153275,158256.030400,-68948.594820
4796.624944,-1480.411884,-71948.017562,-73698.386908
4796.627490,6809.894666,-21762.054695,-81359.341888
4796.630037,14211.954086,-13175.665768,-78907.836294
4796.632586,-34641.638086,-1036.288319,-82125.437386
4796.635135,1924.535449,-17320.819043,-84883.381178
4796.637684,11251.130318,-10658.965565,-76915.987999
4796.640234,5773.606348,40859.367998,-75537.016103
4796.642783,5181.441594,-16284.530724,-81206.122788
4796.645332,-2368.659014,-592.164754,-78294.959896
4796.647882,7105.977043,43228.027013,-74158.044206
4796.650431,3701.029710,-13027.624579,-80440.027290
4796.652980,6217.729913,-4293.194464,-80286.808190
4796.655530,-2516.700203,37602.461854,-77375.645298
4796.658079,-5477.523971,117988.827155,-71093.662214
4796.660628,4293.194464,-131016.451734,-82125.437386
4796.663177,-6513.812290,-28275.866984,-87641.324971
4796.665727,15248.242405,-71207.811620,-87947.763170
4796.668276,-16136.489536,17616.901420,-80746.465489
4796.670825,-3997.112087,120949.650923,-75077.358804
4796.673375,13027.624579,-2220.617826,-73238.729609
4796.675924,3701.029710,-22206.178260,-77988.521696
4796.678473,-1924.535449,14063.912898,-82891.532884
4796.681022,-5181.441594,-19097.313304,-77528.864398
4796.683572,-1776.494261,30348.443622,-77375.645298
4796.686121,9918.759623,2516.700203,-79061.055394
4796.688670,10214.842000,-28719.990550,-78601.398095
4796.691220,2516.700203,1332.370696,-78601.398095
4796.693769,-296.082377,6809.894666,-77375.645298
4796.696318,-4441.235652,14804.118840,-76762.768900
4796.698868,20873.807564,-7994.224174,-78141.740796
4796.701417,-4441.235652,9474.636058,-80593.246390
4796.703966,-16136.489536,49741.839302,-76915.987999
4796.706515,12139.377449,25463.084405,-71706.538613
4796.709065,-5033.400406,-131460.575299,-85649.476676
4796.711614,-26795.455100,229463.842020,-75383.797003
4796.714163,23686.590144,-110586.767735,-71706.538613
4796.716713,-7550.100608,-40859.367998,-83351.190182
4796.719262,1036.288319,153962.835936,-71400.100414
4796.721811,-5329.482782,-98595.431474,-74617.701505
4796.724361,16284.530724,-113251.509126,-81818.999186
4796.726910,5773.606348,32124.937883,-85036.600278
4796.729459,-592.164754,18949.272115,-72472.634111
4796.732008,-7402.059420,-42043.697506,-78448.178995
4796.734528,8438.347739,82606.983127,-79980.369991
4796.737048,3404.947333,-23982.672521,-78601.398095
4796.739568,-1924.535449,-28423.908173,-78294.959896
4796.742088,6365.771101,58772.351795,-76303.111601
4796.744608,888.247130,-31384.731941,-79980.369991
4796.747128,5033.400406,10510.924376,-79827.150892
4796.749648,2072.576638,64249.875766,-74924.139704
4796.752168,-7254.018232,91489.454431,-72012.976812
4796.754688,-3997.112087,9474.636058,-77528.864398
4796.757208,-1924.535449,-59956.681302,-82585.094684
4796.759728,3849.070898,10066.800811,-79827.150892
4796.762247,-148.041188,-68987.193794,-77988.521696
4796.764767,19689.478057,12435.459826,-81052.903688
4796.767287,2516.700203,91933.577996,-76915.987999
4796.769807,2664.741391,-9918.759623,-73698.386908
4796.772327,8734.430116,-15692.365970,-78601.398095
4796.774847,-2516.700203,2072.576638,-82891.532884
4796.777367,-13619.789333,6069.688724,-79520.712692
4796.779887,7402.059420,3552.988522,-76762.768900
4796.782407,4737.318029,296.082377,-81206.122788
4796.784927,-1480.411884,-8586.388927,-79520.712692
4796.787447,6661.853478,-34937.720462,-76609.549800
4796.789967,-5773.606348,41599.573940,-75996.673402
4796.792486,15988.448347,-8882.471304,-81052.903688
4796.795006,-7105.977043,-24722.878463,-83197.971083
4796.797526,-15396.283594,38046.585419,-76609.549800
4796.800046,13767.830521,69727.399736,-69255.033019
4796.802566,888.247130,-63361.628635,-77682.083497
4796.805086,-13027.624579,-3404.947333,-85189.819378
4796.807606,19393.395680,-296.082377,-77528.864398
4796.810126,6661.853478,-120949.650923,-80899.684589
4796.812646,-888.247130,-74316.676577,-83964.066581
4796.815166,9770.718434,38786.791361,-80593.246390
4796.817686,888.247130,7402.059420,-73851.606007
4796.820206,3849.070898,-52258.539505,-80899.684589
4796.822725,14804.118840,46484.933158,-75690.235202
4796.825245,-3701.029710,-10658.965565,-76762.768900
4796.827765,-3849.070898,8586.388927,-81818.999186
4796.830285,7698.141797,34937.720462,-78754.617194
4796.832805,-6069.688724,-31236.690752,-78601.398095
4796.835334,8142.265362,11547.212695,-78141.740796
4796.837862,12879.583391,10362.883188,-76609.549800
4796.840391,6365.771101,-7994.224174,-78907.836294
